sep=;
ACCELEROMETER X (m/s²);ACCELEROMETER Y (m/s²);ACCELEROMETER Z (m/s²);LIGHT (lux);MAGNETIC FIELD X (μT);MAGNETIC FIELD Y (μT);MAGNETIC FIELD Z (μT);ORIENTATION X (°);ORIENTATION Y (°);ORIENTATION Z (°);SOUND LEVEL (dB);LOCATION Latitude : ;LOCATION Longitude : ;LOCATION Altitude ( m);LOCATION Speed ( Kmh);LOCATION Accuracy ( m);Satellites in range;Temperature (F);Level (%);Voltage (Volt);Time since start in ms ;YYYY-MO-DD HH-MI-SS_SSS
-0.6129;5.6312;7.8913;65.7273;8.7;7.2;-33.3;348.14;-30.52;7.06;67.041;19.51973;-96.91561;4349.29;3.22;38.709675;14 / 15;85.6;26.0;3.671;22;2014-11-09 13:39:27:994
1.0343;4.2904;8.6191;51.5455;-5.9;8.3;-32.0;4.75;-42.39;-6.55;76.673;19.51973;-96.91561;4349.29;3.22;38.709675;14 / 14;85.6;26.0;3.671;523;2014-11-09 13:39:28:495
-0.9577;4.4053;8.6957;331.5476;-3.8;8.0;-31.8;33.96;-17.68;13.4;74.555;19.51973;-96.91561;4349.29;3.22;38.709675;14 / 14;85.6;26.0;3.671;1023;2014-11-09 13:39:28:995
-0.6129;3.9456;7.9679;878.5714;-5.9;6.3;-32.1;20.92;-24.2;1.93;75.939;19.51973;-96.91561;4349.29;3.22;38.709675;14 / 14;85.6;26.0;3.671;1530;2014-11-09 13:39:29:502
-0.5363;4.9799;8.5042;1385.0;-0.2;6.5;-33.1;11.62;-21.88;6.7;74.24;19.51973;-96.91561;4349.29;3.22;38.709675;14 / 14;85.6;26.0;3.671;2031;2014-11-09 13:39:30:003
-2.5666;2.3367;9.5002;1343.0952;4.7;7.1;-35.3;359.5;-22.91;7.84;67.65;19.51973;-96.91561;4349.29;3.22;38.709675;14 / 14;85.6;26.0;3.671;2533;2014-11-09 13:39:30:505
-2.9497;3.486;8.3127;1367.619;20.7;18.5;-36.4;339.73;-20.63;13.86;73.024;19.51973;-96.91561;4349.29;3.22;38.709675;14 / 14;85.6;26.0;3.671;3033;2014-11-09 13:39:31:005
0.1532;3.486;9.6151;1466.9048;22.2;16.4;-36.0;343.53;-23.34;18.88;75.813;19.51973;-96.91561;4349.29;3.22;38.709675;14 / 14;85.6;26.0;3.671;3533;2014-11-09 13:39:31:505
-0.8811;4.0223;7.8147;3277.093;22.4;15.5;-35.2;328.77;-27.08;5.1;73.415;19.51973;-96.91561;4349.29;3.22;38.709675;14 / 14;85.6;26.0;3.671;4033;2014-11-09 13:39:32:005
-3.2561;4.865;10.8026;3545.2715;23.3;10.4;-34.4;327.39;-25.43;10.91;65.968;19.51973;-96.91561;4349.29;3.22;38.709675;14 / 14;85.6;26.0;3.671;4536;2014-11-09 13:39:32:508
-1.8771;5.2098;9.3087;3646.0852;19.7;9.9;-32.6;344.01;-26.63;20.13;65.563;19.51973;-96.91561;4349.29;3.22;38.709675;14 / 14;85.6;26.0;3.671;5072;2014-11-09 13:39:33:044
-1.3024;3.9073;5.861;3229.6511;21.2;5.1;-29.9;328.29;-33.06;12.53;64.626;19.519735;-96.91561;4348.86;0.0;25.806452;12 / 14;85.6;26.0;3.671;5599;2014-11-09 13:39:33:571
-0.1532;5.1332;7.0868;2949.6123;18.4;1.1;-28.5;322.32;-45.47;3.08;67.36;19.519735;-96.91561;4348.86;0.0;25.806452;12 / 14;85.6;26.0;3.671;6100;2014-11-09 13:39:34:072
3.4093;5.9376;9.347;4384.07;7.9;8.6;-27.3;328.5;-28.16;-9.18;66.762;19.519735;-96.91561;4348.86;0.0;25.806452;15 / 15;85.6;26.0;3.671;6604;2014-11-09 13:39:34:576
2.2601;5.4396;9.1554;4341.24;6.7;7.9;-26.9;338.56;-31.04;-2.34;65.547;19.519735;-96.91561;4348.86;0.0;25.806452;15 / 15;85.6;26.0;3.671;7104;2014-11-09 13:39:35:076
1.2258;4.0606;10.1131;4035.504;-2.2;5.6;-22.7;348.54;-23.6;-12.37;62.874;19.519741;-96.91561;4348.44;2.06;19.35484;14 / 14;85.6;26.0;3.671;7613;2014-11-09 13:39:35:585
1.0343;4.1755;7.4699;5296.008;-7.7;4.0;-17.4;23.66;-30.9;-8.04;74.946;19.519741;-96.91561;4348.44;2.06;19.35484;14 / 14;85.6;26.0;3.671;8114;2014-11-09 13:39:36:086
2.4134;3.9456;8.9639;5485.116;-6.9;0.5;-16.5;18.71;-23.03;-15.07;74.916;19.519741;-96.91561;4348.44;2.06;19.35484;15 / 15;85.6;26.0;3.671;8619;2014-11-09 13:39:36:591
0.6129;4.0606;8.849;5802.054;-6.7;-0.4;-15.8;55.05;-22.09;4.66;75.59;19.519741;-96.91561;4348.44;2.06;19.35484;15 / 15;85.6;26.0;3.671;9119;2014-11-09 13:39:37:091
1.0726;3.984;8.5042;5290.7363;-5.6;0.4;-17.2;30.28;-24.48;-5.84;72.437;19.519741;-96.91561;4348.44;2.06;19.35484;15 / 15;85.6;26.0;3.671;9623;2014-11-09 13:39:37:595
0.498;3.9073;8.734;5126.667;-5.2;1.3;-17.8;21.95;-24.84;-4.81;61.593;19.519741;-96.91561;4348.44;2.06;19.35484;15 / 15;85.6;26.0;3.671;10124;2014-11-09 13:39:38:096
0.8428;3.8307;8.6191;5122.054;-5.0;1.3;-18.0;21.66;-23.9;-5.29;64.608;19.519741;-96.91561;4348.44;2.06;19.35484;14 / 15;85.6;26.0;3.671;10625;2014-11-09 13:39:38:597
0.9194;3.869;8.6191;5153.0234;-5.4;1.7;-18.0;20.44;-23.24;-5.08;72.355;19.519741;-96.91561;4348.44;2.06;19.35484;14 / 15;85.6;26.0;3.671;11126;2014-11-09 13:39:39:098
0.3831;4.1372;8.6191;5116.783;-5.6;4.3;-17.8;24.32;-25.62;-2.54;68.081;19.519741;-96.91561;4348.44;2.06;19.35484;14 / 14;85.6;26.0;3.671;11626;2014-11-09 13:39:39:598
0.9577;2.0686;8.9256;6097.248;-3.1;12.4;-18.7;2.96;-13.0;-6.51;73.883;19.519741;-96.91561;4348.44;2.06;19.35484;14 / 14;85.6;26.0;3.671;12126;2014-11-09 13:39:40:098
1.6089;3.2561;9.6151;6271.8604;-2.9;10.7;-18.9;5.38;-12.62;-4.78;70.515;19.519741;-96.91561;4348.44;2.06;19.35484;14 / 14;85.6;26.0;3.671;12626;2014-11-09 13:39:40:598
1.2258;2.2984;8.8873;6777.248;-5.6;12.5;-15.1;16.89;-15.48;-3.6;63.161;19.519741;-96.91561;4348.44;2.06;19.35484;14 / 14;85.6;26.0;3.671;13127;2014-11-09 13:39:41:099
2.873;1.6855;9.1171;7025.0;-10.8;12.3;-7.7;30.52;-10.0;-17.49;75.273;19.519741;-96.91561;4348.44;2.06;19.35484;15 / 15;85.6;26.0;3.671;13627;2014-11-09 13:39:41:599
4.0989;2.5283;9.1171;6314.0313;-10.6;11.7;-8.2;33.17;-9.44;-13.41;73.916;19.519741;-96.91561;4348.44;2.06;19.35484;15 / 15;85.6;26.0;3.671;14146;2014-11-09 13:39:42:118
1.7238;4.4436;6.6655;6062.3257;-1.0;11.8;-15.6;350.73;-32.84;-14.5;62.416;19.519741;-96.91561;4348.44;2.06;19.35484;16 / 16;85.6;26.0;3.671;14647;2014-11-09 13:39:42:619
-0.4597;5.6312;5.861;3024.0698;2.3;2.1;-16.6;343.24;-36.42;-5.02;61.922;19.519741;-96.91561;4348.44;2.06;19.35484;16 / 16;85.6;26.0;3.671;15149;2014-11-09 13:39:43:121
-0.4214;5.5162;10.343;4056.589;-1.0;6.3;-17.0;7.27;-28.05;2.33;73.056;19.519741;-96.91561;4348.44;2.06;19.35484;16 / 16;85.6;26.0;3.671;15649;2014-11-09 13:39:43:621
2.4517;2.375;7.2018;5479.8447;-9.0;14.2;-6.6;19.72;-18.4;-21.15;74.988;19.519741;-96.91561;4348.44;2.06;19.35484;16 / 16;85.6;26.0;3.671;16159;2014-11-09 13:39:44:131
2.5666;1.2258;8.9256;5201.124;-8.5;14.4;-6.1;20.94;-16.44;-16.22;72.967;19.519741;-96.91561;4348.44;2.06;19.35484;16 / 16;85.6;26.0;3.671;16659;2014-11-09 13:39:44:631
3.7158;3.0646;9.1937;5205.7363;-9.1;14.3;-6.0;24.93;-19.52;-13.4;70.116;19.519741;-96.91561;4348.44;2.06;19.35484;16 / 16;85.6;26.0;3.671;17159;2014-11-09 13:39:45:131
2.9113;2.988;9.347;5047.5967;-9.9;13.5;-5.0;26.11;-19.46;-19.33;72.722;19.519741;-96.91561;4348.44;2.06;19.35484;16 / 16;85.6;26.0;3.671;17660;2014-11-09 13:39:45:632
1.1109;3.1412;8.9639;4895.3877;-10.3;13.3;-4.1;32.6;-15.61;-11.31;73.446;19.519741;-96.91561;4348.44;2.06;19.35484;16 / 16;85.6;26.0;3.671;18172;2014-11-09 13:39:46:144
1.0726;2.988;7.6231;4911.2017;-10.1;12.4;-4.9;32.18;-28.98;-12.07;68.388;19.519741;-96.91561;4348.44;2.06;19.35484;16 / 16;85.6;26.0;3.671;18672;2014-11-09 13:39:46:644
1.3791;2.2984;7.1251;4842.0156;-10.6;13.3;-5.1;34.18;-17.57;-10.95;72.647;19.519741;-96.91561;4348.44;2.06;19.35484;16 / 16;85.6;26.0;3.671;19185;2014-11-09 13:39:47:157
2.8347;3.6009;10.2663;4647.6357;-12.7;14.1;-4.9;37.65;-19.19;-9.52;72.427;19.519753;-96.91561;4346.34;1.06;25.806452;15 / 16;85.6;26.0;3.671;19685;2014-11-09 13:39:47:657
0.9194;4.9799;8.1594;4357.713;-10.5;19.1;-13.2;19.83;-31.24;-6.43;72.579;19.519753;-96.91561;4346.34;1.06;25.806452;15 / 16;85.6;26.0;3.671;20216;2014-11-09 13:39:48:188
0.2682;3.486;10.9559;4979.07;-7.4;23.6;-16.4;17.83;-13.67;6.07;66.398;19.519753;-96.91561;4346.34;1.06;25.806452;16 / 16;85.6;26.0;3.671;20716;2014-11-09 13:39:48:688
1.1492;3.7541;8.6191;4478.953;-5.9;23.0;-17.5;7.5;-23.35;-7.59;74.52;19.519753;-96.91561;4346.34;1.06;25.806452;16 / 16;85.6;26.0;3.671;21216;2014-11-09 13:39:49:188
3.5626;2.873;9.1937;4057.248;2.9;28.9;-18.8;343.38;-25.31;-22.11;73.17;19.51976;-96.91561;4345.82;1.61;25.806452;16 / 16;85.6;26.0;3.671;21717;2014-11-09 13:39:49:689
0.3448;1.1875;9.6917;4889.457;19.7;29.2;-19.8;326.38;-6.98;-2.04;74.323;19.51976;-96.91561;4345.82;1.61;25.806452;16 / 16;85.6;26.0;3.671;22217;2014-11-09 13:39:50:189
1.992;2.6815;8.7724;4104.69;14.9;23.5;-23.4;324.39;-18.56;-15.09;68.745;19.519764;-96.91562;4345.79;0.0;25.806452;16 / 16;85.6;26.0;3.671;22720;2014-11-09 13:39:50:692
3.0263;3.5243;7.8147;3729.767;12.3;25.5;-23.2;327.5;-22.81;-21.17;70.709;19.519764;-96.91562;4345.79;0.0;25.806452;16 / 16;85.6;26.0;3.671;23221;2014-11-09 13:39:51:193
0.5746;4.2904;8.5808;3729.767;17.6;24.1;-23.4;324.28;-19.56;-8.27;72.666;19.519768;-96.91562;4345.74;0.0;25.806452;16 / 16;85.6;26.0;3.671;23755;2014-11-09 13:39:51:727
1.4557;5.2864;8.7724;3392.4033;8.5;17.9;-25.1;339.86;-31.49;-3.05;63.272;19.519768;-96.91562;4345.74;0.0;25.806452;16 / 16;85.6;26.0;3.671;24274;2014-11-09 13:39:52:246
2.1835;5.6312;7.5082;3297.5195;-11.6;8.6;-17.0;14.71;-32.51;-21.75;72.03;19.519775;-96.91562;4345.27;1.78;25.806452;16 / 16;85.6;26.0;3.671;24792;2014-11-09 13:39:52:764
-0.3448;5.6695;7.3933;1409.5238;-12.1;-1.4;-15.7;55.14;-35.71;0.53;64.67;19.519775;-96.91562;4345.27;1.78;25.806452;16 / 16;85.6;26.0;3.671;25293;2014-11-09 13:39:53:265
-0.6512;6.6655;6.5122;941.0714;-12.1;-6.4;-13.8;69.88;-45.52;5.71;63.76;19.519789;-96.91562;4344.74;0.0;25.806452;16 / 16;85.6;26.0;3.671;25794;2014-11-09 13:39:53:766
-0.0766;6.3973;7.2401;921.4286;-12.5;-7.5;-9.7;84.53;-41.46;1.45;63.797;19.519789;-96.91562;4344.74;0.0;25.806452;16 / 16;85.6;26.0;3.671;26295;2014-11-09 13:39:54:267
0.1149;5.7461;7.2018;1404.0476;-13.1;-10.8;-8.5;105.13;-38.58;-0.91;65.832;19.519789;-96.91562;4344.74;0.0;25.806452;16 / 16;85.6;26.0;3.671;26795;2014-11-09 13:39:54:767
0.4214;5.8993;6.5888;992.8572;-12.9;-12.9;-3.4;123.24;-37.83;0.87;73.009;19.519789;-96.91562;4344.74;0.0;25.806452;16 / 16;85.6;26.0;3.671;27310;2014-11-09 13:39:55:282
0.1149;6.2058;7.4699;1342.8572;-13.1;-16.1;1.9;135.93;-39.72;-0.88;72.174;19.519789;-96.91562;4344.74;0.0;25.806452;15 / 15;85.6;26.0;3.671;27810;2014-11-09 13:39:55:782
0.9577;5.9759;6.9336;1401.9048;-12.0;-19.2;2.8;141.33;-39.83;-8.34;64.762;19.519789;-96.91562;4344.74;0.0;25.806452;15 / 15;85.6;26.0;3.671;28337;2014-11-09 13:39:56:309
0.7278;6.5888;7.3933;1426.6666;-10.5;-20.0;3.5;149.9;-39.53;-3.21;64.385;19.519789;-96.91562;4344.74;0.0;25.806452;16 / 16;85.6;26.0;3.671;28842;2014-11-09 13:39:56:814
-0.6512;5.7461;6.8953;1423.0952;-10.3;-20.2;3.2;151.34;-38.12;3.37;67.408;19.519789;-96.91562;4344.74;0.0;25.806452;16 / 16;85.6;26.0;3.671;29349;2014-11-09 13:39:57:321
-0.5746;5.7078;7.6614;1474.2856;-10.7;-19.0;1.0;147.04;-40.41;2.12;63.92;19.519793;-96.91561;4343.72;1.66;25.806452;15 / 16;85.6;26.0;3.671;29850;2014-11-09 13:39:57:822
0.5363;5.861;7.1251;3044.496;-10.7;-19.0;0.6;144.38;-35.63;-5.43;60.945;19.519793;-96.91561;4343.72;1.66;25.806452;15 / 16;85.6;26.0;3.671;30350;2014-11-09 13:39:58:322
-1.6472;4.2138;7.2784;3070.8525;-9.9;-19.6;-1.0;151.04;-29.45;12.75;62.331;19.519793;-96.91561;4343.72;1.66;25.806452;16 / 16;85.6;26.0;3.671;30850;2014-11-09 13:39:58:822
-1.8771;5.861;7.6614;3371.9763;-9.7;-17.8;-5.0;142.15;-30.72;6.51;75.003;19.519793;-96.91561;4343.72;1.66;25.806452;16 / 16;85.6;26.0;3.671;31350;2014-11-09 13:39:59:322
1.2641;4.4436;6.8187;3366.7056;-9.3;-19.1;0.3;149.65;-32.65;-10.5;67.55;19.519793;-96.91561;4343.72;1.66;25.806452;16 / 16;85.6;26.0;3.671;31851;2014-11-09 13:39:59:823
0.3831;4.5969;9.2703;3529.4575;-6.4;-21.2;-2.4;161.33;-27.82;-1.97;73.479;19.519793;-96.91561;4343.72;1.66;25.806452;16 / 16;85.6;26.0;3.671;32351;2014-11-09 13:40:00:323
-0.3065;6.5888;6.3207;3672.442;-6.8;-22.2;3.5;159.69;-46.16;2.78;72.347;19.519793;-96.91561;4343.72;1.66;25.806452;16 / 16;85.6;26.0;3.671;32852;2014-11-09 13:40:00:824
1.4557;5.9759;6.5122;3530.1165;-10.5;-20.8;3.5;149.96;-37.31;-8.94;69.549;19.519793;-96.91561;4343.72;1.66;25.806452;16 / 16;85.6;26.0;3.671;33352;2014-11-09 13:40:01:324
-1.7621;6.8187;8.351;3582.829;-10.3;-19.3;1.1;144.99;-45.0;0.9;60.69;19.519793;-96.9156;4342.36;1.28;77.41935;16 / 16;85.6;26.0;3.671;33852;2014-11-09 13:40:01:824
-1.1109;5.3247;7.7381;3677.7131;-9.9;-16.5;-4.8;137.98;-31.47;7.09;70.299;19.519793;-96.9156;4342.36;1.28;77.41935;16 / 16;85.6;26.0;3.671;34352;2014-11-09 13:40:02:324
-0.1915;5.8227;7.0102;3461.589;-8.5;-19.8;-0.7;152.46;-39.73;8.01;72.808;19.519796;-96.91559;4341.91;2.19;19.35484;16 / 16;85.6;26.0;3.671;34852;2014-11-09 13:40:02:824
-0.4597;5.7078;7.4699;4157.4033;-6.5;-22.4;-0.3;160.86;-38.44;0.89;74.026;19.519796;-96.91559;4341.91;2.19;19.35484;16 / 16;85.6;26.0;3.671;35352;2014-11-09 13:40:03:324
-1.0726;5.1332;7.5848;4268.1006;-2.4;-23.5;0.9;174.92;-33.93;11.36;71.274;19.519804;-96.91558;4341.41;1.84;25.806452;16 / 16;85.6;26.0;3.671;35853;2014-11-09 13:40:03:825
-0.8428;5.7461;7.3933;4104.69;0.8;-25.5;4.0;183.87;-37.34;7.31;70.543;19.519804;-96.91558;4341.41;1.84;25.806452;16 / 16;85.6;26.0;3.671;36361;2014-11-09 13:40:04:333
-0.8045;6.2058;7.355;3814.767;1.2;-27.0;5.1;183.39;-40.79;4.61;62.93;19.519804;-96.91558;4341.41;1.84;25.806452;16 / 16;85.6;26.0;3.671;36862;2014-11-09 13:40:04:834
-0.498;5.7461;7.5465;3577.558;1.2;-27.4;5.7;183.63;-39.44;5.41;64.935;19.519804;-96.91558;4341.41;1.84;25.806452;16 / 16;85.6;26.0;3.671;37362;2014-11-09 13:40:05:334
-0.3065;5.3247;8.0445;3324.535;0.4;-26.6;3.1;180.64;-37.05;5.01;62.059;19.519808;-96.91558;4341.33;0.0;25.806452;16 / 16;85.6;26.0;3.671;37862;2014-11-09 13:40:05:834
-0.3065;5.5162;7.8913;4009.1472;0.0;-25.6;1.5;180.12;-33.75;1.36;72.717;19.519808;-96.91558;4341.33;0.0;25.806452;16 / 16;85.6;26.0;3.671;38362;2014-11-09 13:40:06:334
-0.3831;5.7844;7.5465;3830.5813;-0.8;-25.4;1.9;177.58;-36.74;2.89;68.493;19.519808;-96.91558;4341.33;0.0;25.806452;16 / 16;85.6;26.0;3.671;38863;2014-11-09 13:40:06:835
-0.2682;5.7461;7.4699;3825.31;-1.4;-25.4;3.1;177.72;-37.91;2.64;71.632;19.519808;-96.91558;4341.33;0.0;25.806452;16 / 16;85.6;26.0;3.671;39363;2014-11-09 13:40:07:335
-0.2682;5.8227;7.4316;3788.411;-1.6;-25.6;3.9;175.45;-37.77;2.34;72.183;19.51981;-96.91557;4341.28;0.0;25.806452;16 / 16;85.6;26.0;3.671;39863;2014-11-09 13:40:07:835
-0.3831;5.8227;7.5082;3762.054;-1.6;-25.6;4.1;175.52;-39.45;3.14;64.895;19.51981;-96.91557;4341.28;0.0;25.806452;16 / 16;85.6;26.0;3.671;40364;2014-11-09 13:40:08:336
-0.2682;5.7844;7.4316;3713.9531;-1.6;-25.6;4.1;175.39;-37.88;2.07;59.86;19.51981;-96.91557;4341.28;0.0;25.806452;16 / 16;85.6;26.0;3.671;40865;2014-11-09 13:40:08:837
-0.1915;5.5545;7.6614;3735.0388;-1.6;-25.6;4.1;175.34;-37.92;1.76;60.403;19.51981;-96.91557;4341.28;0.0;25.806452;16 / 16;85.6;26.0;3.671;41365;2014-11-09 13:40:09:337
0.0;5.6312;7.6998;3878.0232;-2.0;-25.4;3.7;174.93;-36.18;0.0;64.492;19.51981;-96.915565;4341.26;0.0;19.35484;16 / 16;85.6;26.0;3.671;41866;2014-11-09 13:40:09:838
-0.0766;5.8993;7.355;3092.597;-3.0;-25.0;4.1;172.35;-38.73;0.6;70.351;19.51981;-96.915565;4341.26;0.0;19.35484;16 / 16;85.6;26.0;3.671;42366;2014-11-09 13:40:10:338
-0.3065;5.6312;7.7381;4125.116;-3.2;-25.0;4.3;173.16;-36.16;3.96;71.577;19.51981;-96.915565;4341.26;0.0;19.35484;16 / 16;85.6;26.0;3.671;42866;2014-11-09 13:40:10:838
-0.1532;5.5929;7.6231;4172.558;-2.8;-24.8;2.8;172.38;-36.26;1.15;72.635;19.51981;-96.915565;4341.26;0.0;19.35484;16 / 16;85.6;26.0;3.671;43366;2014-11-09 13:40:11:338
-0.1532;5.6695;7.5848;4140.93;-3.0;-24.8;2.6;172.34;-36.82;1.15;65.335;19.519812;-96.91556;4341.25;0.0;38.709675;17 / 17;85.6;26.0;3.671;43866;2014-11-09 13:40:11:838
-0.0766;5.5929;7.6614;4162.0156;-3.4;-24.6;3.2;172.3;-36.13;0.57;64.665;19.519812;-96.91556;4341.25;0.0;38.709675;17 / 17;85.6;26.0;3.671;44366;2014-11-09 13:40:12:338
0.0;5.5929;7.6614;4214.7285;-3.6;-24.6;3.2;169.71;-36.22;0.29;60.065;19.519812;-96.91556;4341.25;0.0;38.709675;16 / 16;85.6;26.0;3.671;44867;2014-11-09 13:40:12:839
-0.0383;5.5545;7.7764;4247.0156;-3.4;-24.6;3.0;172.31;-35.54;0.28;70.754;19.519812;-96.91556;4341.25;0.0;38.709675;16 / 16;85.6;26.0;3.671;45367;2014-11-09 13:40:13:339
0.1532;5.5929;7.9296;4420.9688;-3.4;-24.6;3.0;172.13;-35.19;-1.11;69.824;19.519812;-96.91556;4341.25;0.0;38.709675;16 / 16;85.6;26.0;3.671;45867;2014-11-09 13:40:13:839
0.9194;5.8993;7.0102;4335.9688;-3.4;-24.6;4.0;170.93;-37.61;-7.67;63.324;19.519812;-96.91556;4341.25;0.0;38.709675;16 / 16;85.6;26.0;3.671;46367;2014-11-09 13:40:14:339
1.1109;6.0142;7.2784;4246.3564;-3.8;-25.0;6.1;168.2;-39.47;-7.54;76.855;19.519808;-96.91555;4341.23;0.0;38.709675;16 / 16;85.6;26.0;3.671;46867;2014-11-09 13:40:14:839
1.1492;5.8227;7.3167;4294.457;-4.0;-25.2;7.2;167.8;-38.48;-9.27;67.581;19.519808;-96.91555;4341.23;0.0;38.709675;16 / 16;85.6;26.0;3.671;47367;2014-11-09 13:40:15:339
0.3065;5.7461;7.5848;4204.186;-3.8;-25.2;5.9;169.65;-37.4;-2.63;60.733;19.519808;-96.91555;4341.23;0.0;38.709675;15 / 15;85.6;26.0;3.671;47867;2014-11-09 13:40:15:839
0.3448;5.7461;7.5465;4262.171;-3.4;-25.2;5.3;171.9;-37.21;-2.92;62.604;19.519808;-96.91555;4341.23;0.0;38.709675;15 / 15;85.6;26.0;3.671;48367;2014-11-09 13:40:16:339
0.3831;5.5929;7.8147;3282.3643;-3.2;-25.0;4.5;172.03;-37.17;-2.35;61.457;19.519808;-96.91555;4341.23;0.0;38.709675;11 / 11;85.6;26.0;3.671;48867;2014-11-09 13:40:16:839
0.4597;5.5545;7.8913;816.6667;-3.2;-24.8;4.3;171.77;-35.88;-3.72;68.159;19.519808;-96.91555;4341.23;0.0;38.709675;11 / 11;85.6;26.0;3.671;49367;2014-11-09 13:40:17:339
0.5746;5.4396;7.7381;731.5476;-4.0;-24.6;3.5;169.06;-33.8;-6.04;66.61;19.519808;-96.91555;4341.23;0.0;38.709675;11 / 11;85.6;26.0;3.671;49869;2014-11-09 13:40:17:841
0.8045;5.4013;7.8147;778.5714;-4.6;-24.2;3.1;165.96;-34.71;-5.96;66.256;19.519808;-96.91555;4341.23;0.0;38.709675;11 / 11;85.6;26.0;3.671;50369;2014-11-09 13:40:18:341
0.6512;5.2864;7.7764;564.881;-5.2;-24.0;2.9;166.2;-34.11;-4.79;67.817;19.519808;-96.91555;4341.23;0.0;38.709675;10 / 10;85.6;26.0;3.671;50869;2014-11-09 13:40:18:841
0.5363;5.363;7.853;692.8571;-5.2;-24.0;2.9;166.23;-34.58;-4.21;65.099;19.519808;-96.91555;4341.23;0.0;38.709675;10 / 10;85.6;26.0;3.671;51369;2014-11-09 13:40:19:341
0.7661;5.3247;7.9296;674.4048;-4.8;-24.0;2.9;166.14;-33.76;-5.52;62.999;19.519808;-96.91555;4341.23;0.0;38.709675;10 / 10;85.6;26.0;3.671;51869;2014-11-09 13:40:19:841
0.5363;5.2481;7.853;816.6667;-5.0;-24.0;2.9;165.96;-34.99;-5.74;67.699;19.519808;-96.91555;4341.23;0.0;38.709675;10 / 10;85.6;26.0;3.671;52369;2014-11-09 13:40:20:341
0.6512;4.4436;7.853;1402.1428;-4.8;-24.0;2.9;166.72;-29.42;-4.74;68.381;19.519808;-96.91556;4341.14;0.0;25.806452;10 / 10;85.6;26.0;3.671;52869;2014-11-09 13:40:20:841
2.2984;6.5505;7.2401;445.2381;-5.0;-24.4;10.7;162.02;-43.99;-15.15;67.187;19.519808;-96.91556;4341.14;0.0;25.806452;10 / 10;85.6;26.0;3.671;53370;2014-11-09 13:40:21:342
1.5323;6.1675;7.3167;1369.5238;-5.6;-24.8;8.8;162.25;-39.52;-11.83;67.204;19.519808;-96.91556;4341.14;0.0;25.806452;10 / 10;85.6;26.0;3.671;53870;2014-11-09 13:40:21:842
0.0383;5.3247;7.853;3777.2092;-4.9;-24.8;4.2;167.44;-34.6;-1.15;69.475;19.519808;-96.91556;4341.14;0.0;25.806452;10 / 10;85.6;26.0;3.671;54370;2014-11-09 13:40:22:342
0.3831;5.6312;7.5465;3925.465;-3.7;-25.0;4.6;169.49;-36.69;-2.91;70.428;19.519808;-96.91556;4341.14;0.0;25.806452;11 / 11;85.6;26.0;3.671;54870;2014-11-09 13:40:22:842
0.4597;5.2864;7.3933;4009.1472;-3.1;-25.6;5.1;172.13;-36.87;-3.2;72.776;19.519808;-96.91556;4341.14;0.0;25.806452;11 / 11;85.6;26.0;3.671;55370;2014-11-09 13:40:23:342
2.375;4.865;8.6191;3070.8525;-4.7;-24.3;3.9;165.21;-28.55;-15.41;69.003;19.519808;-96.91556;4341.14;0.0;25.806452;13 / 13;85.6;26.0;3.671;55870;2014-11-09 13:40:23:842
1.5706;4.4436;8.1594;3202.6357;-6.0;-23.0;3.9;162.61;-28.09;-12.76;72.371;19.519808;-96.91556;4341.14;0.0;25.806452;13 / 13;85.6;26.0;3.671;56370;2014-11-09 13:40:24:342
1.7621;4.4053;8.3893;2981.2402;-6.6;-22.4;2.9;159.76;-27.2;-11.86;68.726;19.519808;-96.91556;4341.14;0.0;25.806452;13 / 13;85.6;26.0;3.671;56870;2014-11-09 13:40:24:842
1.3024;4.5969;8.1977;1383.0952;-6.6;-22.4;2.9;159.87;-28.98;-9.03;74.202;19.519808;-96.91556;4341.14;0.0;25.806452;13 / 13;85.6;26.0;3.671;57370;2014-11-09 13:40:25:342
1.6855;5.2098;7.7381;879.1668;-6.8;-22.8;5.2;159.45;-33.34;-12.29;74.326;19.519808;-96.91556;4341.14;0.0;25.806452;7 / 7;85.6;26.0;3.671;57871;2014-11-09 13:40:25:843
0.8045;5.2481;7.8147;2949.6123;-6.6;-23.4;5.5;161.03;-33.74;-5.88;68.934;19.519808;-96.91556;4341.14;0.0;25.806452;7 / 7;85.6;26.0;3.671;58371;2014-11-09 13:40:26:343
1.6472;4.3287;8.5042;4625.8916;-5.4;-24.0;5.2;165.85;-26.55;-10.96;71.536;19.519817;-96.91556;4341.26;0.0;19.35484;13 / 13;85.6;26.0;3.671;58872;2014-11-09 13:40:26:844
2.375;5.0949;8.0062;3735.6975;-4.8;-24.2;5.2;165.13;-28.13;-14.16;76.259;19.519817;-96.91556;4341.26;0.0;19.35484;13 / 13;85.6;26.0;3.671;59372;2014-11-09 13:40:27:344
1.1875;5.5162;7.3167;4194.3022;0.8;-27.0;8.2;179.36;-36.66;-9.22;70.791;19.519821;-96.91555;4341.28;0.0;19.35484;13 / 13;85.6;26.0;3.671;59873;2014-11-09 13:40:27:845
0.9577;5.1715;7.8913;4625.8916;1.7;-27.6;8.1;181.99;-33.54;-7.29;69.808;19.519821;-96.91555;4341.28;0.0;19.35484;13 / 13;85.6;26.0;3.671;60374;2014-11-09 13:40:28:346
0.8428;5.4396;7.7381;4626.5503;2.5;-28.2;7.3;184.69;-34.95;-6.22;75.963;19.519821;-96.91555;4341.28;0.0;19.35484;15 / 15;85.6;26.0;3.671;60875;2014-11-09 13:40:28:847
1.1875;6.0142;6.8187;4494.7676;2.3;-28.2;6.9;180.97;-40.44;-12.46;75.116;19.519821;-96.91555;4341.28;0.0;19.35484;15 / 15;85.6;26.0;3.671;61375;2014-11-09 13:40:29:347
1.1109;5.1332;9.1171;4357.713;-7.2;-21.6;3.2;160.14;-29.2;-6.95;66.6;19.519823;-96.91555;4341.34;0.0;19.35484;15 / 15;85.6;26.0;3.671;61876;2014-11-09 13:40:29:848
0.4597;5.0566;8.3893;4821.589;-3.8;-23.8;3.2;169.74;-31.12;0.0;64.925;19.519823;-96.91555;4341.34;0.0;19.35484;15 / 15;85.6;26.0;3.671;62376;2014-11-09 13:40:30:348
1.8004;4.367;7.6231;4979.7285;0.1;-26.0;3.9;177.86;-29.14;-13.29;65.532;19.519823;-96.91555;4341.34;0.0;19.35484;15 / 15;85.6;26.0;3.671;62876;2014-11-09 13:40:30:848
1.2641;5.363;7.9679;4985.0;-0.7;-26.2;5.5;175.47;-35.9;-9.1;69.855;19.519823;-96.91555;4341.34;0.0;19.35484;15 / 15;85.6;26.0;3.671;63376;2014-11-09 13:40:31:348
1.3791;7.4316;6.1675;3851.6667;-5.7;-25.0;8.8;161.61;-45.83;-11.11;71.926;19.519823;-96.91555;4341.34;0.0;19.35484;13 / 15;85.6;26.0;3.671;63877;2014-11-09 13:40:31:849
2.8347;6.2058;5.9759;917.262;-5.1;-24.4;14.3;156.93;-43.18;-25.38;69.539;19.519823;-96.91555;4341.34;0.0;19.35484;13 / 15;85.6;26.0;3.671;64377;2014-11-09 13:40:32:349
2.2601;7.0485;5.7078;859.5238;-1.6;-25.4;14.4;165.56;-48.62;-19.98;68.875;19.519817;-96.91554;4341.27;0.0;51.612904;13 / 13;85.6;26.0;3.671;64877;2014-11-09 13:40:32:849
1.0343;6.4356;6.857;983.9286;2.7;-27.4;15.1;181.38;-42.86;-8.58;73.001;19.519817;-96.91554;4341.27;0.0;51.612904;13 / 13;85.6;26.0;3.671;65377;2014-11-09 13:40:33:349
0.5746;6.857;7.6998;879.1668;8.5;-28.6;13.3;194.81;-44.58;-4.32;75.077;19.519817;-96.91554;4341.27;0.0;51.612904;13 / 13;85.6;26.0;3.671;65878;2014-11-09 13:40:33:850
0.9194;6.7421;6.2824;3408.2173;19.0;-29.9;12.5;205.82;-46.55;-12.12;55.773;19.519817;-96.91554;4341.27;0.0;51.612904;13 / 13;85.6;26.0;3.671;66378;2014-11-09 13:40:34:350
0.2682;6.5505;7.5082;3709.3413;19.8;-30.3;11.3;209.7;-44.29;-9.56;43.825;19.519817;-96.91554;4341.27;0.0;51.612904;13 / 13;85.6;26.0;3.671;66878;2014-11-09 13:40:34:850
0.2298;6.7421;6.3207;3551.2017;19.4;-30.1;10.6;214.01;-42.27;2.89;42.176;19.519817;-96.91554;4341.27;0.0;51.612904;13 / 13;85.6;26.0;3.671;67379;2014-11-09 13:40:35:351
1.6089;5.5162;6.3973;3624.3413;17.7;-29.9;10.6;210.34;-42.43;-2.17;42.174;19.519817;-96.91554;4341.27;0.0;51.612904;8 / 13;85.6;26.0;3.671;67879;2014-11-09 13:40:35:851
1.992;6.8187;6.359;3345.62;16.5;-30.1;11.9;204.58;-46.71;-10.97;42.872;19.519817;-96.91554;4341.27;0.0;51.612904;8 / 13;85.6;26.0;3.671;68379;2014-11-09 13:40:36:351
0.3065;5.1332;8.2744;3213.8372;10.7;-30.1;11.1;196.42;-37.44;-8.48;43.939;19.519817;-96.91554;4341.27;0.0;51.612904;14 / 14;85.6;26.0;3.671;68879;2014-11-09 13:40:36:851
0.3448;6.5888;7.5465;435.7143;9.2;-29.5;9.2;195.68;-38.96;-5.65;65.076;19.519817;-96.91554;4341.27;0.0;51.612904;14 / 14;85.6;26.0;3.671;69380;2014-11-09 13:40:37:352
1.0726;5.4396;7.5465;349.4048;9.0;-29.3;8.7;193.7;-35.53;-10.36;71.764;19.519812;-96.91554;4340.5;0.0;25.806452;14 / 14;85.6;26.0;3.671;69881;2014-11-09 13:40:37:853
0.6895;6.0908;6.4739;335.1191;10.2;-29.7;7.9;197.96;-43.09;-6.08;70.337;19.519812;-96.91554;4340.5;0.0;25.806452;14 / 14;85.6;26.0;3.671;70381;2014-11-09 13:40:38:353
-0.0383;3.7158;8.0062;63.5455;10.2;-29.7;6.5;198.71;-38.61;-3.56;62.72;19.519812;-96.91554;4340.5;0.0;25.806452;15 / 15;85.6;26.0;3.671;70884;2014-11-09 13:40:38:856
-1.4174;5.3247;8.3127;58.6364;16.4;-29.3;4.9;212.86;-32.27;9.68;55.842;19.519812;-96.91554;4340.5;0.0;25.806452;15 / 15;85.3;25.0;3.672;71384;2014-11-09 13:40:39:356
0.6512;5.0566;7.6231;66.8182;21.2;-29.1;4.0;213.71;-33.89;-14.04;51.747;19.519812;-96.91554;4340.5;0.0;25.806452;15 / 15;85.3;25.0;3.672;71885;2014-11-09 13:40:39:857
1.2258;6.3207;8.7724;14.0741;17.1;-29.3;3.4;211.59;-35.51;-7.95;59.83;19.519812;-96.91554;4340.5;0.0;25.806452;15 / 15;85.3;25.0;3.672;72385;2014-11-09 13:40:40:357
0.2682;5.4396;7.3167;14.8148;13.0;-29.9;4.2;205.76;-34.02;0.58;52.612;19.519812;-96.91554;4340.5;0.0;25.806452;15 / 15;85.3;25.0;3.672;72885;2014-11-09 13:40:40:857
1.8387;4.7884;7.2784;34.0909;13.6;-30.5;4.4;203.31;-32.53;-14.18;59.787;19.519812;-96.91554;4340.5;0.0;25.806452;15 / 15;85.3;25.0;3.672;73385;2014-11-09 13:40:41:357
1.5706;6.2058;7.5848;67.3636;16.9;-31.1;3.8;209.93;-40.58;-9.61;55.726;19.519806;-96.91554;4339.91;1.54;51.612904;15 / 15;85.3;25.0;3.672;73885;2014-11-09 13:40:41:857
0.5363;5.4779;7.2784;63.5455;16.8;-31.5;3.6;212.37;-36.72;1.48;47.31;19.519806;-96.91554;4339.91;1.54;51.612904;15 / 15;85.3;25.0;3.672;74385;2014-11-09 13:40:42:357
1.9537;4.1372;7.7764;375.5953;16.6;-31.7;3.4;210.65;-36.35;-4.07;43.021;19.519806;-96.91554;4339.91;1.54;51.612904;15 / 15;85.3;25.0;3.672;74885;2014-11-09 13:40:42:857
0.4597;6.7421;8.1211;294.6429;20.9;-31.3;1.8;218.35;-36.04;-1.13;50.398;19.519806;-96.91554;4339.91;1.54;51.612904;15 / 15;85.3;25.0;3.672;75385;2014-11-09 13:40:43:357
-0.8045;5.0182;7.9296;46.0909;18.9;-31.3;1.4;215.02;-30.88;0.0;72.48;19.519806;-96.91554;4339.91;1.54;51.612904;15 / 15;85.3;25.0;3.672;75886;2014-11-09 13:40:43:858
0.5746;5.4779;8.1594;8.4211;19.3;-31.7;1.2;213.03;-27.2;-1.62;67.564;19.519806;-96.91554;4339.91;1.54;51.612904;15 / 15;85.3;25.0;3.672;76386;2014-11-09 13:40:44:358
0.1915;6.0908;7.8147;38.4545;21.1;-31.7;1.0;217.33;-34.15;-2.08;71.249;19.5198;-96.915535;4339.83;0.0;77.41935;15 / 15;85.3;25.0;3.672;76886;2014-11-09 13:40:44:858
0.0766;5.6695;7.5465;41.1818;21.3;-32.3;1.8;217.67;-36.31;-0.86;60.823;19.5198;-96.915535;4339.83;0.0;77.41935;15 / 15;85.3;25.0;3.672;77386;2014-11-09 13:40:45:358
0.1149;5.7461;7.5848;38.4545;20.4;-32.5;2.0;216.57;-37.1;-0.87;59.854;19.5198;-96.91553;4339.54;2.82;25.806452;14 / 14;85.3;25.0;3.672;77886;2014-11-09 13:40:45:858
0.4597;5.8227;7.5848;14.8148;19.6;-32.7;2.0;215.97;-37.24;-0.29;59.855;19.5198;-96.91553;4339.54;2.82;25.806452;14 / 14;85.3;25.0;3.672;78386;2014-11-09 13:40:46:358
0.3065;5.7844;7.5465;14.0741;19.6;-32.7;1.8;215.18;-36.38;-2.31;67.256;19.5198;-96.91553;4339.54;2.82;25.806452;14 / 14;85.3;25.0;3.672;78886;2014-11-09 13:40:46:858
0.4214;5.5929;7.6998;53.7273;19.4;-32.5;1.2;214.92;-35.95;-3.13;68.459;19.5198;-96.91553;4339.54;2.82;25.806452;14 / 14;85.3;25.0;3.672;79386;2014-11-09 13:40:47:358
0.3831;5.4396;7.6614;53.1818;19.2;-32.5;1.0;214.96;-35.67;-2.59;57.045;19.5198;-96.91552;4339.19;1.76;25.806452;14 / 14;85.3;25.0;3.672;79886;2014-11-09 13:40:47:858
1.3791;5.6695;7.4699;43.9091;18.6;-32.3;0.2;213.99;-36.74;-10.46;57.141;19.5198;-96.91552;4339.19;1.76;25.806452;14 / 14;85.3;25.0;3.672;80387;2014-11-09 13:40:48:359
1.494;6.4739;8.6957;43.3636;17.8;-32.3;-0.4;213.23;-38.61;-10.36;58.453;19.5198;-96.91552;4339.19;1.76;25.806452;13 / 14;85.3;25.0;3.672;80887;2014-11-09 13:40:48:859
-0.2682;4.3287;8.1977;6.3158;15.7;-31.7;-1.8;210.42;-27.82;1.87;57.766;19.5198;-96.91552;4339.19;1.76;25.806452;13 / 14;85.3;25.0;3.672;81387;2014-11-09 13:40:49:359
1.5706;4.1372;8.4276;9.4737;13.2;-31.3;-4.2;205.7;-22.5;-11.26;69.902;19.519796;-96.91552;4339.14;0.0;38.709675;13 / 13;85.3;25.0;3.672;81887;2014-11-09 13:40:49:859
1.5323;3.9456;8.5808;5.2632;6.4;-29.2;-7.4;196.55;-24.35;-10.12;68.622;19.519796;-96.91552;4339.14;0.0;38.709675;13 / 13;85.3;25.0;3.672;82387;2014-11-09 13:40:50:359
0.5363;3.7541;8.849;6.3158;5.1;-27.8;-8.2;193.58;-21.87;-4.36;70.415;19.519796;-96.91552;4339.14;0.0;38.709675;13 / 13;85.3;25.0;3.672;82887;2014-11-09 13:40:50:859
0.6895;4.3287;8.4276;6.3158;4.4;-27.4;-8.2;192.72;-27.11;-4.68;75.285;19.519796;-96.91552;4339.14;0.0;38.709675;13 / 13;85.3;25.0;3.672;83387;2014-11-09 13:40:51:359
0.8811;4.5203;8.2744;5.2632;4.2;-27.8;-7.4;192.43;-28.39;-6.31;70.437;19.519789;-96.91551;4339.09;0.0;38.709675;13 / 13;85.3;25.0;3.672;83887;2014-11-09 13:40:51:859
0.8428;4.4053;8.6957;6.3158;4.4;-28.6;-6.2;191.53;-29.14;-6.13;71.955;19.519789;-96.91551;4339.09;0.0;38.709675;13 / 13;85.3;25.0;3.672;84388;2014-11-09 13:40:52:360
0.4214;4.1755;8.5808;7.3684;5.2;-28.2;-7.6;192.88;-23.65;-1.01;59.71;19.519789;-96.91551;4339.09;0.0;38.709675;13 / 13;85.3;25.0;3.672;84889;2014-11-09 13:40:52:861
0.4597;4.4436;8.6957;6.8421;6.4;-28.0;-8.0;196.4;-26.54;-2.6;75.848;19.519789;-96.91551;4339.09;0.0;38.709675;13 / 13;85.3;25.0;3.672;85389;2014-11-09 13:40:53:361
-0.0766;3.7541;8.6574;7.3684;7.0;-28.2;-7.8;197.86;-24.95;-0.75;74.509;19.51978;-96.91551;4339.04;0.0;25.806452;13 / 13;85.3;25.0;3.672;85889;2014-11-09 13:40:53:861
0.1149;4.2904;8.6191;7.3684;8.0;-28.2;-8.0;200.64;-26.77;-0.52;75.409;19.51978;-96.91551;4339.04;0.0;25.806452;13 / 13;85.3;25.0;3.672;86389;2014-11-09 13:40:54:361
-0.0383;4.2904;8.4276;8.9474;8.0;-28.2;-8.2;200.97;-26.97;-1.55;75.579;19.51978;-96.91551;4339.04;0.0;25.806452;14 / 14;85.3;25.0;3.672;86889;2014-11-09 13:40:54:861
0.1532;4.1755;8.734;8.4211;7.8;-28.8;-7.6;200.49;-27.91;-1.58;76.019;19.51978;-96.91551;4339.04;0.0;25.806452;14 / 14;85.3;25.0;3.672;87389;2014-11-09 13:40:55:361
0.2682;4.2904;8.4659;7.3684;7.6;-28.8;-7.6;200.11;-26.66;-1.54;73.342;19.519772;-96.915504;4338.99;0.0;25.806452;13 / 13;85.3;25.0;3.672;87890;2014-11-09 13:40:55:862
0.5363;4.7884;8.6574;9.4737;8.1;-28.8;-8.0;198.69;-23.32;0.51;58.748;19.519772;-96.915504;4338.99;0.0;25.806452;13 / 13;85.3;25.0;3.672;88390;2014-11-09 13:40:56:362
0.3065;4.0989;8.5425;6.8421;9.1;-28.8;-7.8;202.2;-26.46;-1.3;59.994;19.519772;-96.915504;4338.99;0.0;25.806452;13 / 13;85.3;25.0;3.672;88890;2014-11-09 13:40:56:862
0.1915;5.0182;8.0828;9.4737;9.5;-29.0;-7.4;205.75;-31.83;-1.36;61.427;19.519772;-96.915504;4338.99;0.0;25.806452;13 / 13;85.3;25.0;3.672;89390;2014-11-09 13:40:57:362
0.7661;5.2098;8.0062;8.9474;9.3;-30.9;-2.4;199.93;-33.23;-1.39;59.507;19.519768;-96.915504;4338.96;0.0;25.806452;13 / 13;85.3;25.0;3.672;89891;2014-11-09 13:40:57:863
0.7661;5.2098;7.9679;6.8421;9.7;-32.1;-2.3;201.13;-33.06;-5.49;59.347;19.519768;-96.915504;4338.96;0.0;25.806452;13 / 13;85.3;25.0;3.672;90391;2014-11-09 13:40:58:363
0.996;5.2481;7.8147;4.7368;9.9;-32.1;-2.1;201.23;-33.75;-6.95;59.767;19.519768;-96.915504;4338.96;0.0;25.806452;13 / 13;85.3;25.0;3.672;90895;2014-11-09 13:40:58:867
0.9194;5.0949;8.0062;0.0;9.5;-32.1;-2.5;200.91;-32.3;-6.55;61.786;19.519768;-96.915504;4338.96;0.0;25.806452;13 / 13;85.3;25.0;3.672;91395;2014-11-09 13:40:59:367
0.8811;5.2481;8.0062;7.3684;9.5;-32.1;-2.5;201.1;-32.98;-5.79;66.898;19.519768;-96.915504;4338.96;0.0;25.806452;13 / 13;85.3;25.0;3.672;91895;2014-11-09 13:40:59:867
0.8045;5.1715;7.853;0.0;9.9;-31.9;-2.5;201.15;-33.23;-5.85;61.224;19.519768;-96.915504;4338.96;0.0;25.806452;13 / 13;85.3;25.0;3.672;92396;2014-11-09 13:41:00:368
0.7661;5.1715;7.853;4.7368;9.9;-31.9;-2.7;201.69;-32.98;-5.79;62.263;19.51976;-96.915504;4338.93;0.0;38.709675;13 / 13;85.3;25.0;3.672;92896;2014-11-09 13:41:00:868
0.8428;5.0566;7.9679;4.7368;10.1;-31.9;-2.9;201.56;-32.45;-6.04;58.682;19.51976;-96.915504;4338.93;0.0;38.709675;13 / 13;85.3;25.0;3.672;93396;2014-11-09 13:41:01:368
0.8811;5.0566;7.9679;4.7368;9.9;-31.9;-2.9;201.61;-32.69;-6.55;57.645;19.51976;-96.915504;4338.93;0.0;38.709675;13 / 13;85.3;25.0;3.672;93896;2014-11-09 13:41:01:868
0.7278;5.0949;7.9679;4.7368;9.9;-31.9;-2.9;201.71;-33.07;-6.55;58.555;19.51976;-96.915504;4338.93;0.0;38.709675;13 / 13;85.3;25.0;3.672;94396;2014-11-09 13:41:02:368
0.6129;5.2864;7.8147;6.8421;10.1;-31.9;-2.9;201.79;-33.39;-6.58;57.636;19.51976;-96.915504;4338.93;0.0;38.709675;12 / 12;85.3;25.0;3.672;94897;2014-11-09 13:41:02:869
0.5746;5.2481;7.8147;46.6364;11.5;-32.1;-2.5;204.99;-33.8;-4.42;57.753;19.51976;-96.915504;4338.93;0.0;38.709675;12 / 12;85.3;25.0;3.672;95397;2014-11-09 13:41:03:369
0.6129;5.1715;7.9679;51.0;12.1;-32.1;-2.3;204.8;-33.09;-4.46;58.641;19.519756;-96.915504;4338.72;0.0;38.709675;12 / 12;85.3;25.0;3.672;95897;2014-11-09 13:41:03:869
0.5746;5.1715;7.853;49.3636;12.5;-32.3;-2.1;206.59;-33.29;-4.4;58.65;19.519756;-96.915504;4338.72;0.0;38.709675;12 / 12;85.3;25.0;3.672;96511;2014-11-09 13:41:04:483
0.7278;5.2864;7.853;45.0;12.5;-32.3;-2.1;206.48;-33.19;-5.44;59.919;19.51976;-96.91551;4338.58;3.64;38.709675;12 / 12;85.3;25.0;3.672;97011;2014-11-09 13:41:04:983
0.6512;5.2864;7.8147;42.2727;12.7;-32.3;-2.1;206.84;-34.19;-4.48;57.464;19.519764;-96.91552;4338.48;3.27;38.709675;11 / 12;85.3;25.0;3.672;97535;2014-11-09 13:41:05:507
0.3448;4.7501;8.2744;34.0909;12.9;-32.1;-2.8;206.44;-30.28;-1.61;57.481;19.519764;-96.91552;4338.48;3.27;38.709675;11 / 12;85.3;25.0;3.672;98040;2014-11-09 13:41:06:012
0.4597;4.9033;8.1977;34.0909;13.3;-31.5;-4.2;207.97;-31.09;-2.97;58.62;19.519764;-96.91553;4338.46;1.48;25.806452;11 / 12;85.3;25.0;3.672;98554;2014-11-09 13:41:06:526
0.3448;4.9799;8.1594;34.6364;13.3;-31.5;-4.2;207.85;-30.67;-2.41;58.514;19.519764;-96.91553;4338.46;1.48;25.806452;11 / 12;85.3;25.0;3.672;99055;2014-11-09 13:41:07:027
0.0766;4.6735;8.2744;35.7273;13.3;-31.5;-4.0;208.02;-31.24;-2.94;58.597;19.519764;-96.91553;4338.46;1.48;25.806452;11 / 11;85.3;25.0;3.672;99555;2014-11-09 13:41:07:527
0.2682;4.6352;8.351;35.7273;13.5;-31.1;-4.4;209.09;-29.03;-1.31;57.855;19.519764;-96.91553;4338.46;1.48;25.806452;11 / 11;85.3;25.0;3.672;100055;2014-11-09 13:41:08:027
0.4597;4.7501;8.3127;38.4545;13.5;-30.9;-4.8;209.86;-29.71;-3.17;57.732;19.519764;-96.915535;4338.45;1.32;25.806452;11 / 11;85.3;25.0;3.672;100555;2014-11-09 13:41:08:527
0.4214;4.7118;8.3127;14.6296;13.5;-30.9;-4.8;209.86;-29.75;-2.66;56.821;19.519764;-96.915535;4338.45;1.32;25.806452;11 / 11;85.3;25.0;3.672;101055;2014-11-09 13:41:09:027
0.3831;4.5203;8.4659;14.2593;13.7;-30.9;-5.0;209.32;-28.08;-2.59;57.262;19.519764;-96.915535;4338.45;1.32;25.806452;12 / 12;85.3;25.0;3.672;101556;2014-11-09 13:41:09:528
0.3448;4.5586;8.351;14.0741;13.9;-30.7;-5.4;209.27;-28.01;-1.05;60.546;19.519764;-96.915535;4338.45;1.32;25.806452;12 / 12;85.3;25.0;3.672;102056;2014-11-09 13:41:10:028
0.2682;4.5969;8.2361;13.8889;14.1;-30.7;-5.2;209.66;-29.15;-1.86;58.779;19.51976;-96.91555;4338.44;0.0;51.612904;12 / 12;85.3;25.0;3.672;102557;2014-11-09 13:41:10:529
1.0726;5.1332;7.9679;29.7273;14.1;-31.3;-4.4;210.3;-33.48;-7.16;58.304;19.51976;-96.91555;4338.44;0.0;51.612904;12 / 12;85.3;25.0;3.672;103057;2014-11-09 13:41:11:029
1.0726;5.2098;7.9679;4.7368;13.3;-31.9;-3.3;206.9;-32.94;-7.67;65.475;19.51976;-96.91555;4338.44;0.0;51.612904;12 / 12;85.3;25.0;3.672;103558;2014-11-09 13:41:11:530
0.8045;5.0949;8.0062;33.0;13.1;-31.9;-3.1;206.39;-31.39;-8.9;61.411;19.51976;-96.91555;4338.44;0.0;51.612904;12 / 12;85.3;25.0;3.672;104058;2014-11-09 13:41:12:030
0.9577;5.0566;7.9679;5.2632;13.1;-31.9;-3.5;206.75;-32.21;-6.85;57.409;19.519764;-96.91556;4338.29;1.74;51.612904;12 / 12;85.3;25.0;3.672;104558;2014-11-09 13:41:12:530
0.8428;4.7884;8.1594;6.8421;13.1;-31.7;-3.7;207.44;-32.08;-5.49;56.948;19.519764;-96.91556;4338.29;1.74;51.612904;12 / 12;85.3;25.0;3.672;105058;2014-11-09 13:41:13:030
1.1875;4.6735;8.5042;4.7368;12.9;-31.5;-4.1;207.14;-28.56;-7.95;56.722;19.519764;-96.91556;4338.1;1.72;51.612904;12 / 12;85.3;25.0;3.672;105558;2014-11-09 13:41:13:530
0.996;4.9033;8.1211;4.2105;12.9;-31.3;-4.3;207.49;-29.69;-6.6;58.544;19.519764;-96.91556;4338.1;1.72;51.612904;12 / 12;85.3;25.0;3.672;106058;2014-11-09 13:41:14:030
1.1109;4.5586;8.3127;13.8889;12.7;-31.3;-4.5;207.14;-28.53;-7.61;61.118;19.519764;-96.91556;4338.1;1.72;51.612904;12 / 12;85.3;25.0;3.672;106559;2014-11-09 13:41:14:531
0.498;4.5586;8.2361;5.2632;12.9;-31.1;-4.5;207.31;-29.06;-6.8;58.533;19.519764;-96.91556;4338.1;1.72;51.612904;12 / 12;85.3;25.0;3.672;107059;2014-11-09 13:41:15:031
0.7278;4.7501;8.1594;14.0741;13.3;-30.9;-5.1;208.07;-29.48;-4.22;60.899;19.519764;-96.91556;4338.1;1.72;51.612904;12 / 12;85.3;25.0;3.672;107559;2014-11-09 13:41:15:531
0.6895;5.1332;8.0062;14.0741;13.1;-31.1;-4.7;208.74;-31.55;-6.46;59.311;19.519764;-96.91556;4338.1;1.72;51.612904;12 / 12;85.3;25.0;3.672;108079;2014-11-09 13:41:16:051
0.4214;5.0949;8.0062;14.2593;13.1;-31.7;-3.2;207.02;-32.44;-3.01;65.183;19.519764;-96.91556;4338.1;1.72;51.612904;12 / 12;85.3;25.0;3.672;108580;2014-11-09 13:41:16:552
0.3831;5.2481;8.0062;14.0741;13.3;-31.9;-3.0;207.37;-33.59;-3.06;60.754;19.519764;-96.91556;4338.1;1.72;51.612904;12 / 12;85.3;25.0;3.672;109099;2014-11-09 13:41:17:071
0.6129;5.3247;8.0062;8.9474;13.3;-32.1;-2.4;206.6;-32.89;-2.77;57.785;19.51976;-96.915565;4338.0;0.0;38.709675;12 / 12;85.3;25.0;3.672;109601;2014-11-09 13:41:17:573
0.0766;4.7118;8.2744;13.8889;13.3;-31.5;-4.3;207.27;-28.85;0.0;61.278;19.51976;-96.915565;4338.0;0.0;38.709675;12 / 12;85.3;25.0;3.672;110111;2014-11-09 13:41:18:083
0.2298;4.8267;8.3127;13.8889;13.5;-30.9;-4.7;209.98;-30.13;-1.58;58.331;19.51976;-96.915565;4338.0;0.0;38.709675;12 / 12;85.3;25.0;3.672;110626;2014-11-09 13:41:18:598
0.1532;5.5929;7.6614;14.2593;13.5;-32.2;-1.2;208.87;-36.12;-1.15;57.94;19.51976;-96.915565;4338.0;0.0;38.709675;12 / 12;85.3;25.0;3.672;111147;2014-11-09 13:41:19:119
0.1149;5.5545;7.6614;14.8148;13.5;-32.8;-0.8;208.23;-36.36;-0.86;58.514;19.51976;-96.915565;4338.0;0.0;38.709675;12 / 12;85.3;25.0;3.672;111647;2014-11-09 13:41:19:619
0.1915;5.4013;7.7764;14.2593;13.5;-33.0;-0.5;207.43;-35.8;-1.43;60.571;19.51976;-96.915565;4338.0;0.0;38.709675;12 / 12;85.3;25.0;3.672;112147;2014-11-09 13:41:20:119
0.0;4.4053;8.5808;43.3636;13.8;-32.8;-1.3;207.05;-34.46;-5.99;59.089;19.519753;-96.915565;4337.94;0.0;38.709675;12 / 12;85.3;25.0;3.672;112648;2014-11-09 13:41:20:620
0.2682;5.5162;7.0102;52.6364;19.0;-31.8;-3.2;218.81;-38.18;-2.19;60.006;19.519753;-96.915565;4337.94;0.0;38.709675;12 / 12;85.3;25.0;3.672;113157;2014-11-09 13:41:21:129
0.7278;4.9416;8.0062;40.0909;19.4;-31.4;-3.8;219.73;-36.53;-2.67;60.348;19.519753;-96.915565;4337.94;0.0;38.709675;12 / 12;85.3;25.0;3.672;113658;2014-11-09 13:41:21:630
-0.4214;4.5586;9.2703;9.4737;19.6;-31.6;-4.3;216.7;-26.16;2.6;62.539;19.519753;-96.915565;4337.94;0.0;38.709675;12 / 12;85.3;25.0;3.672;114158;2014-11-09 13:41:22:130
0.6895;4.4053;7.9679;8.4211;14.2;-30.7;-9.6;212.21;-25.09;-13.92;64.839;19.519753;-96.915565;4337.94;0.0;38.709675;12 / 12;85.3;25.0;3.672;114659;2014-11-09 13:41:22:631
0.8811;4.865;6.9336;8.4211;13.9;-30.1;-7.9;215.23;-34.84;-7.24;67.955;19.519753;-96.915565;4337.94;0.0;38.709675;12 / 12;85.3;25.0;3.672;115159;2014-11-09 13:41:23:131
-1.1109;4.5586;6.9719;6.8421;12.4;-31.8;-5.6;206.24;-32.78;5.6;60.757;19.519745;-96.915565;4337.41;0.0;51.612904;12 / 12;85.3;25.0;3.672;115660;2014-11-09 13:41:23:632
-0.9577;4.367;6.4739;6.8421;11.5;-33.3;-4.1;205.2;-33.24;2.19;69.913;19.519745;-96.915565;4337.41;0.0;51.612904;12 / 12;85.3;25.0;3.672;116165;2014-11-09 13:41:24:137
-0.2298;4.4436;8.5042;4.7368;-6.7;-25.9;-9.1;160.74;-26.74;-2.15;73.667;19.519745;-96.915565;4337.41;0.0;51.612904;12 / 12;85.3;25.0;3.672;116666;2014-11-09 13:41:24:638
0.1532;3.6009;8.1977;5.2632;-9.8;-12.7;-19.5;115.92;-23.01;-3.26;67.251;19.519745;-96.915565;4337.41;0.0;51.612904;12 / 12;85.3;25.0;3.672;117166;2014-11-09 13:41:25:138
0.0766;4.2521;8.4276;4.2105;-9.4;-3.4;-25.1;39.01;-25.57;-4.99;72.095;19.519745;-96.915565;4337.41;0.0;51.612904;12 / 12;85.3;25.0;3.672;117668;2014-11-09 13:41:25:640
0.5363;3.6009;8.849;4.7368;-7.3;5.3;-26.0;20.4;-22.11;-3.47;73.084;19.519745;-96.915565;4337.41;0.0;51.612904;12 / 12;85.3;25.0;3.672;118168;2014-11-09 13:41:26:140
-0.0383;3.0646;8.9639;5.2632;-6.5;4.8;-26.8;22.59;-19.81;-0.49;69.017;19.519745;-96.915565;4337.41;0.0;51.612904;12 / 12;85.3;25.0;3.672;118683;2014-11-09 13:41:26:655
0.0766;3.1029;9.0788;5.2632;-6.3;4.7;-27.0;23.18;-18.87;-0.48;71.514;19.519745;-96.915565;4337.41;0.0;51.612904;12 / 12;85.3;25.0;3.672;119183;2014-11-09 13:41:27:155
-0.0766;3.2561;8.9256;4.2105;-6.5;4.7;-27.0;23.46;-19.09;-0.24;68.558;19.519745;-96.915565;4337.41;0.0;51.612904;12 / 12;85.3;25.0;3.672;119683;2014-11-09 13:41:27:655
-0.0766;3.1029;9.0405;5.2632;-6.3;4.5;-27.0;25.26;-18.87;0.73;61.645;19.519745;-96.915565;4337.41;0.0;51.612904;12 / 12;85.3;25.0;3.672;120183;2014-11-09 13:41:28:155
-0.0383;3.1029;9.0405;4.2105;-6.3;4.1;-27.0;26.1;-19.38;0.49;62.587;19.519745;-96.915565;4337.41;0.0;51.612904;12 / 12;85.3;25.0;3.672;120683;2014-11-09 13:41:28:655
-0.0383;3.0646;9.0788;6.3158;-6.7;4.1;-26.6;29.81;-18.65;0.24;71.692;19.519745;-96.915565;4337.41;0.0;51.612904;12 / 12;85.3;25.0;3.672;121183;2014-11-09 13:41:29:155
0.0383;3.0646;9.0405;4.2105;-6.9;4.1;-26.6;29.28;-18.8;0.0;71.052;19.519745;-96.915565;4337.41;0.0;51.612904;12 / 12;85.3;25.0;3.672;121684;2014-11-09 13:41:29:656
0.0;3.0646;9.0405;4.2105;-6.9;4.1;-26.6;29.33;-18.73;0.0;66.752;19.519745;-96.915565;4337.41;0.0;51.612904;12 / 12;85.3;25.0;3.672;122184;2014-11-09 13:41:30:156
0.0;2.9113;9.0022;5.2632;-6.9;4.1;-26.6;28.37;-18.36;-0.72;70.491;19.519745;-96.915565;4337.41;0.0;51.612904;12 / 12;85.3;25.0;3.672;122685;2014-11-09 13:41:30:657
-0.0383;2.9497;9.1554;5.2632;-6.9;4.5;-26.8;28.41;-18.15;0.24;70.911;19.519745;-96.915565;4337.41;0.0;51.612904;12 / 12;85.3;25.0;3.672;123185;2014-11-09 13:41:31:157
0.1915;2.988;9.1171;5.2632;-6.9;4.7;-26.6;27.53;-17.71;-0.48;66.392;19.519745;-96.91556;4336.58;0.0;25.806452;12 / 12;85.3;25.0;3.672;123686;2014-11-09 13:41:31:658
0.1915;3.0263;9.1171;5.2632;-7.3;4.9;-26.4;27.78;-17.64;-0.72;66.111;19.519745;-96.91556;4336.58;0.0;25.806452;12 / 12;85.3;25.0;3.672;124192;2014-11-09 13:41:32:164
0.3065;2.9497;9.0405;5.2632;-7.5;4.9;-26.2;25.56;-18.43;-1.69;68.553;19.519745;-96.91556;4336.58;0.0;25.806452;12 / 12;85.3;25.0;3.672;124692;2014-11-09 13:41:32:664
0.1532;3.0646;9.0405;4.2105;-7.7;4.9;-26.2;29.48;-17.85;-1.68;66.941;19.519745;-96.91556;4336.58;0.0;25.806452;12 / 12;85.3;25.0;3.672;125192;2014-11-09 13:41:33:164
0.2298;3.0646;9.0405;5.2632;-7.9;4.9;-26.2;29.15;-18.28;-1.68;59.736;19.519745;-96.91555;4336.85;1.56;25.806452;12 / 12;85.3;25.0;3.672;125692;2014-11-09 13:41:33:664
0.3065;2.9497;9.1171;4.7368;-7.9;4.9;-26.2;28.95;-18.5;-1.7;58.105;19.519745;-96.91555;4336.85;1.56;25.806452;12 / 12;85.3;25.0;3.672;126192;2014-11-09 13:41:34:164
0.1915;3.0263;9.0788;6.3158;-7.9;4.9;-26.2;29.18;-18.21;-1.69;69.845;19.519745;-96.91555;4336.85;1.56;25.806452;12 / 12;85.3;25.0;3.672;126693;2014-11-09 13:41:34:665
0.3831;2.7964;9.2703;4.7368;-7.9;4.9;-26.0;29.2;-16.77;-2.37;71.782;19.519745;-96.91555;4336.85;1.56;25.806452;12 / 12;85.3;25.0;3.672;127194;2014-11-09 13:41:35:166
0.1149;2.6815;9.232;4.2105;-7.9;4.9;-26.0;33.3;-16.5;0.0;63.757;19.51974;-96.91554;4336.92;0.0;25.806452;12 / 12;85.3;25.0;3.672;127694;2014-11-09 13:41:35:666
0.5363;2.7964;9.1937;5.2632;-7.7;5.3;-26.4;32.25;-16.83;-0.48;68.224;19.51974;-96.91554;4336.92;0.0;25.806452;12 / 12;85.3;25.0;3.672;128194;2014-11-09 13:41:36:166
0.3831;3.0263;9.1554;4.2105;-8.2;5.1;-26.2;27.75;-18.06;-2.64;73.065;19.51974;-96.91554;4336.92;0.0;25.806452;12 / 12;85.3;25.0;3.672;128712;2014-11-09 13:41:36:684
0.6129;3.1029;8.9639;5.2632;-9.5;3.4;-25.2;33.05;-19.05;-3.91;70.308;19.51974;-96.91554;4336.92;0.0;25.806452;12 / 12;85.3;25.0;3.672;129213;2014-11-09 13:41:37:185
0.498;2.8347;9.0788;4.7368;-9.7;3.0;-25.2;39.25;-17.54;-3.14;73.118;19.51974;-96.91554;4336.92;0.0;25.806452;12 / 12;85.3;25.0;3.672;129713;2014-11-09 13:41:37:685
0.5363;2.8347;9.1554;5.2632;-9.7;3.2;-25.4;39.3;-17.18;-3.35;65.926;19.51974;-96.91554;4336.92;0.0;25.806452;12 / 12;85.3;25.0;3.672;130214;2014-11-09 13:41:38:186
0.6129;2.9113;9.0788;6.3158;-9.9;2.6;-25.2;38.41;-16.94;-4.07;61.063;19.519741;-96.915535;4337.09;1.05;51.612904;12 / 12;85.3;25.0;3.672;130714;2014-11-09 13:41:38:686
0.9194;3.1412;8.8107;5.2632;-10.9;0.5;-24.1;42.86;-18.69;-6.23;67.677;19.519741;-96.915535;4337.09;1.05;51.612904;12 / 12;85.3;25.0;3.672;131219;2014-11-09 13:41:39:191
1.0726;3.1029;8.8107;5.2632;-11.9;-1.3;-23.1;54.22;-19.07;-5.81;68.489;19.519741;-96.915535;4337.09;1.05;51.612904;12 / 12;85.3;25.0;3.672;131733;2014-11-09 13:41:39:705
1.494;2.873;9.5768;6.3158;-12.1;-1.7;-23.6;45.26;-20.91;-10.55;65.436;19.519741;-96.915535;4337.09;1.05;51.612904;12 / 12;85.3;25.0;3.672;132236;2014-11-09 13:41:40:208
-1.0343;4.0223;7.6614;4.7368;-11.4;-20.7;-22.1;123.74;-27.49;7.69;63.263;19.519741;-96.915535;4337.09;1.05;51.612904;12 / 12;85.3;25.0;3.672;132752;2014-11-09 13:41:40:724
2.0303;2.8347;9.8067;5.2632;-10.5;-27.9;-15.4;153.32;-23.03;0.0;63.085;19.519741;-96.915535;4337.09;1.05;51.612904;12 / 12;85.3;25.0;3.672;133253;2014-11-09 13:41:41:225
0.996;3.5243;10.3046;6.8421;-3.7;-33.1;-13.8;172.23;-22.6;-2.39;58.724;19.519741;-96.915535;4337.09;1.05;51.612904;12 / 12;85.3;25.0;3.672;133757;2014-11-09 13:41:41:729
0.6512;3.9456;9.232;7.3684;-7.9;-32.6;-11.5;162.99;-23.96;-0.8;70.476;19.519741;-96.915535;4337.09;1.05;51.612904;12 / 12;85.3;25.0;3.672;134258;2014-11-09 13:41:42:230
-1.1492;4.7884;7.6998;4.2105;-8.0;-27.3;-13.4;149.78;-31.59;8.49;69.699;19.519741;-96.915535;4337.09;1.05;51.612904;12 / 12;85.3;25.0;3.672;134759;2014-11-09 13:41:42:731
-1.6855;4.5969;8.0828;4.7368;-9.6;-14.0;-23.4;96.16;-30.61;11.1;74.649;19.519741;-96.915535;4337.09;1.05;51.612904;12 / 12;85.3;25.0;3.672;135259;2014-11-09 13:41:43:231
-2.4517;4.4436;8.0445;0.0;-4.9;-9.0;-29.0;71.92;-27.85;16.95;72.535;19.519741;-96.915535;4337.09;1.05;51.612904;12 / 12;85.3;25.0;3.672;135766;2014-11-09 13:41:43:738
-2.4517;4.4819;8.1211;0.0;-5.3;-9.1;-29.0;70.34;-28.36;16.34;73.204;19.519741;-96.915535;4337.09;1.05;51.612904;12 / 12;85.3;25.0;3.672;136266;2014-11-09 13:41:44:238
-2.6049;4.2904;8.1594;0.0;-4.7;-7.8;-29.3;71.52;-26.61;17.71;61.899;19.519741;-96.915535;4337.09;1.05;51.612904;12 / 12;85.3;25.0;3.672;136766;2014-11-09 13:41:44:738
-2.49;4.2138;8.1594;0.0;-4.3;-7.2;-29.7;64.26;-27.04;17.62;72.12;19.519741;-96.915535;4337.09;1.05;51.612904;12 / 12;85.3;25.0;3.672;137266;2014-11-09 13:41:45:238
-2.2218;4.2138;8.2361;0.0;-4.1;-6.4;-29.9;59.1;-26.29;15.1;72.143;19.519741;-96.915535;4337.09;1.05;51.612904;12 / 12;85.3;25.0;3.672;137775;2014-11-09 13:41:45:747
-2.4134;4.4053;8.1594;0.0;-4.9;-6.0;-29.5;64.07;-24.82;14.28;72.199;19.519741;-96.915535;4337.09;1.05;51.612904;12 / 12;85.3;25.0;3.672;138277;2014-11-09 13:41:46:249
-2.1452;4.2521;8.1977;0.0;-5.1;-5.6;-29.3;62.78;-26.72;15.91;73.195;19.519735;-96.915535;4337.32;0.0;51.612904;12 / 12;85.3;25.0;3.672;138786;2014-11-09 13:41:46:758
-1.5706;4.2904;8.5808;0.0;-5.1;-5.8;-29.3;64.01;-25.19;14.77;73.689;19.519735;-96.915535;4337.32;0.0;51.612904;12 / 12;85.3;25.0;3.672;139288;2014-11-09 13:41:47:260
-1.3024;4.5203;8.1977;0.0;-9.7;-5.8;-27.0;64.49;-28.57;9.03;73.089;19.519735;-96.915535;4337.32;0.0;51.612904;12 / 12;85.3;25.0;3.672;139788;2014-11-09 13:41:47:760
0.6512;4.9033;8.1594;0.0;-11.2;-5.6;-25.9;53.88;-30.24;-0.27;66.331;19.519735;-96.915535;4337.32;0.0;51.612904;12 / 12;85.3;25.0;3.672;140289;2014-11-09 13:41:48:261
1.0343;5.5162;7.3167;0.0;-12.9;-1.7;-24.8;38.14;-35.83;-5.14;73.639;19.51973;-96.91553;4337.33;0.0;38.709675;12 / 12;85.3;25.0;3.672;140790;2014-11-09 13:41:48:762
2.4134;6.857;6.2441;0.0;-14.1;-2.1;-23.1;19.08;-45.66;-18.43;65.193;19.51973;-96.91553;4337.33;0.0;38.709675;12 / 12;85.3;25.0;3.672;141290;2014-11-09 13:41:49:262
2.6432;6.5505;6.1292;0.0;-14.4;-2.7;-23.3;18.4;-46.45;-19.19;59.723;19.51973;-96.91553;4337.33;0.0;38.709675;12 / 12;85.3;25.0;3.672;141791;2014-11-09 13:41:49:763
3.2178;5.2481;7.2784;0.0;-5.8;5.3;-28.8;346.16;-40.67;-22.6;74.949;19.51973;-96.91553;4337.33;0.0;38.709675;12 / 12;85.3;25.0;3.672;142292;2014-11-09 13:41:50:264
2.9497;6.0908;6.5888;0.0;8.7;3.7;-31.6;311.51;-36.6;-23.45;74.237;19.51973;-96.91553;4337.33;0.0;38.709675;12 / 12;85.3;25.0;3.672;142810;2014-11-09 13:41:50:782
2.873;6.2824;5.5162;0.0;5.4;2.3;-32.0;306.82;-40.31;-34.68;75.619;19.51973;-96.91553;4337.33;0.0;38.709675;12 / 12;85.3;25.0;3.672;143310;2014-11-09 13:41:51:282
2.0303;8.0062;3.5243;0.0;6.2;-9.9;-29.2;307.69;-63.07;-29.95;77.462;19.51973;-96.91553;4337.33;0.0;38.709675;12 / 12;85.3;25.0;3.672;143816;2014-11-09 13:41:51:788
1.4174;5.7078;8.3127;0.0;14.0;-1.1;-32.1;303.31;-51.72;-25.45;69.023;19.51973;-96.91553;4337.33;0.0;38.709675;12 / 12;85.3;25.0;3.672;144316;2014-11-09 13:41:52:288
1.3408;5.4779;7.9296;0.0;17.3;5.4;-35.2;313.07;-34.2;-10.71;64.156;19.519735;-96.91552;4336.51;1.48;51.612904;12 / 12;85.3;25.0;3.672;144845;2014-11-09 13:41:52:817
1.9154;5.8993;6.7804;0.0;15.2;0.4;-34.7;304.1;-40.1;-20.37;72.448;19.519735;-96.91552;4336.51;1.48;51.612904;12 / 12;85.3;25.0;3.672;145345;2014-11-09 13:41:53:317
1.9154;6.2058;6.6655;0.0;17.2;0.9;-33.5;307.09;-41.53;-15.14;65.877;19.519735;-96.91552;4336.51;1.48;51.612904;12 / 12;85.3;25.0;3.672;145983;2014-11-09 13:41:53:955
1.7621;5.5929;6.4739;0.0;18.2;-0.6;-31.5;302.19;-38.3;-12.99;69.421;19.519735;-96.91552;4336.51;1.48;51.612904;12 / 12;85.3;25.0;3.672;146483;2014-11-09 13:41:54:455
2.5666;4.0989;6.2441;0.0;1.2;3.8;-30.7;315.41;-20.77;-23.86;70.212;19.519735;-96.91552;4336.51;1.48;51.612904;12 / 12;85.3;25.0;3.672;146983;2014-11-09 13:41:54:955
2.2984;6.0525;9.5768;8.4211;1.5;4.9;-29.1;339.8;-31.56;-9.99;69.17;19.51974;-96.91552;4336.59;1.79;38.709675;12 / 12;85.3;25.0;3.672;147484;2014-11-09 13:41:55:456
1.1492;4.2521;6.6272;8.9474;5.0;4.9;-28.7;331.45;-29.1;-9.51;69.453;19.51974;-96.91552;4336.59;1.79;38.709675;12 / 12;85.3;25.0;3.672;147984;2014-11-09 13:41:55:956
2.7581;5.3247;6.0908;7.3684;5.2;1.9;-28.9;327.45;-36.84;-13.02;63.327;19.51974;-96.91552;4336.59;1.79;38.709675;12 / 12;85.3;25.0;3.672;148485;2014-11-09 13:41:56:457
1.8771;6.5888;6.5122;7.3684;6.0;3.2;-27.7;325.6;-44.19;-16.08;69.969;19.51974;-96.91552;4336.59;1.79;38.709675;12 / 12;85.3;25.0;3.672;148989;2014-11-09 13:41:56:961
0.8428;5.3247;7.2018;8.9474;9.5;5.4;-27.5;321.05;-30.02;-8.17;67.998;19.51974;-96.91552;4336.59;1.79;38.709675;12 / 12;85.3;25.0;3.672;149530;2014-11-09 13:41:57:502
2.5666;5.1715;6.4739;13.8889;9.6;4.9;-27.5;316.37;-36.64;-15.95;72.432;19.51974;-96.91552;4336.59;1.79;38.709675;12 / 12;85.3;25.0;3.672;150035;2014-11-09 13:41:58:007
2.0303;7.6614;4.9033;8.4211;8.8;-2.5;-26.4;315.89;-54.91;-17.5;72.883;19.519749;-96.91552;4336.28;1.86;51.612904;12 / 12;85.3;25.0;3.672;150535;2014-11-09 13:41:58:507
0.0383;5.2481;6.8953;14.0741;17.8;3.8;-25.5;317.42;-38.76;1.22;64.828;19.519749;-96.91552;4336.28;1.86;51.612904;12 / 12;85.3;25.0;3.672;151045;2014-11-09 13:41:59:017
1.3408;3.2561;8.3893;14.2593;19.8;12.7;-25.9;321.67;-26.54;2.79;68.943;19.519749;-96.91552;4336.28;1.86;51.612904;12 / 12;85.3;25.0;3.672;151546;2014-11-09 13:41:59:518
0.4597;5.2481;7.7764;14.8148;19.7;10.5;-26.5;316.89;-33.97;-3.38;63.632;19.519749;-96.91552;4336.28;1.86;51.612904;12 / 12;85.3;25.0;3.672;152047;2014-11-09 13:42:00:019
0.1532;4.8267;7.2401;14.6296;24.0;9.3;-26.5;309.27;-27.29;-0.52;61.041;19.519754;-96.91552;4335.8;1.08;25.806452;12 / 12;85.3;25.0;3.672;152547;2014-11-09 13:42:00:519
0.3448;6.5122;8.1211;14.8148;25.6;7.4;-25.7;309.34;-36.65;0.28;61.355;19.519754;-96.91552;4335.8;1.08;25.806452;12 / 12;85.3;25.0;3.672;153047;2014-11-09 13:42:01:019
-0.4597;5.9376;7.355;29.7273;26.3;6.5;-25.3;304.03;-33.89;-4.02;59.223;19.519754;-96.91552;4335.8;1.08;25.806452;12 / 12;85.3;25.0;3.672;153579;2014-11-09 13:42:01:551
0.9577;4.0989;8.1977;8.9474;43.9;-4.0;-13.7;270.94;-26.27;-5.42;62.475;19.519754;-96.91552;4335.8;1.08;25.806452;12 / 12;85.3;25.0;3.672;154080;2014-11-09 13:42:02:052
-0.0383;5.0182;7.8913;9.4737;45.7;-10.1;-7.1;264.33;-32.45;0.28;64.546;19.519762;-96.91552;4335.89;1.61;25.806452;12 / 12;85.3;25.0;3.672;154580;2014-11-09 13:42:02:552
-0.3448;6.7804;8.4276;8.4211;45.2;-8.3;-12.1;273.38;-41.02;1.55;61.066;19.519762;-96.91552;4335.89;1.61;25.806452;12 / 12;85.3;25.0;3.672;155080;2014-11-09 13:42:03:052
1.2258;5.5545;7.1635;8.9474;41.5;-3.7;-15.4;271.95;-37.39;-9.71;60.886;19.519762;-96.91552;4335.89;1.61;25.806452;12 / 12;85.3;25.0;3.672;155580;2014-11-09 13:42:03:552
-0.4597;3.869;7.9296;33.0;41.2;-3.9;-10.7;272.16;-24.26;2.25;66.715;19.519762;-96.91552;4335.89;1.61;25.806452;12 / 12;85.3;25.0;3.672;156081;2014-11-09 13:42:04:053
2.2601;4.0606;8.1211;47.7273;40.6;-4.4;-11.2;274.14;-33.18;0.73;60.2;19.519768;-96.91553;4335.95;0.0;25.806452;12 / 12;85.3;25.0;3.672;156581;2014-11-09 13:42:04:553
0.1149;5.7461;8.0062;31.9091;39.2;-2.0;-9.8;272.87;-33.66;-4.96;65.427;19.519768;-96.91553;4335.95;0.0;25.806452;12 / 12;85.3;25.0;3.672;157081;2014-11-09 13:42:05:053
-0.2298;4.2521;7.7764;33.0;39.0;-1.1;-1.0;270.35;-32.65;1.47;72.439;19.519768;-96.91553;4335.95;0.0;25.806452;12 / 12;85.3;25.0;3.672;157582;2014-11-09 13:42:05:554
0.9194;4.4819;7.853;8.9474;40.2;-0.6;-1.1;265.5;-31.39;-7.71;63.802;19.519768;-96.91553;4335.95;0.0;25.806452;12 / 12;85.3;25.0;3.672;158083;2014-11-09 13:42:06:055
1.4557;3.6009;6.9336;8.4211;41.6;-1.8;-0.8;262.76;-26.94;-11.86;68.051;19.519775;-96.915535;4335.46;0.0;51.612904;12 / 12;85.3;25.0;3.672;158583;2014-11-09 13:42:06:555
0.2298;4.5586;8.2744;6.8421;42.2;-3.8;-0.4;264.57;-28.26;-1.35;66.277;19.519775;-96.915535;4335.46;0.0;51.612904;12 / 12;85.3;25.0;3.672;159083;2014-11-09 13:42:07:055
0.5746;5.6312;7.355;5.2632;41.8;-3.6;-8.3;269.56;-37.35;-4.47;68.011;19.519775;-96.91554;4335.43;0.0;51.612904;12 / 12;85.3;25.0;3.672;159584;2014-11-09 13:42:07:556
0.2682;6.3207;10.1897;0.0;40.9;-3.2;-9.1;272.26;-31.8;-1.51;66.789;19.519775;-96.91554;4335.43;0.0;51.612904;12 / 12;85.3;25.0;3.672;160085;2014-11-09 13:42:08:057
1.3024;5.1715;8.6957;0.0;40.3;-8.9;-9.0;261.31;-30.46;-8.52;66.416;19.519775;-96.91554;4335.43;0.0;51.612904;12 / 12;85.3;25.0;3.672;160585;2014-11-09 13:42:08:557
0.1532;5.861;7.0868;0.0;40.7;-1.5;-14.9;282.94;-35.46;3.22;71.453;19.519775;-96.91554;4335.43;0.0;51.612904;12 / 12;85.3;25.0;3.672;161086;2014-11-09 13:42:09:058
0.3448;4.6735;7.5465;0.0;40.5;-1.5;-14.6;278.26;-31.74;-2.62;64.329;19.519781;-96.91555;4334.98;0.0;51.612904;12 / 12;85.3;25.0;3.672;161586;2014-11-09 13:42:09:558
-1.3791;6.3973;11.9902;8.4211;40.3;2.5;-15.7;284.19;-23.82;2.56;68.89;19.519781;-96.91555;4334.98;0.0;51.612904;12 / 12;85.3;25.0;3.672;162086;2014-11-09 13:42:10:058
-0.1915;3.9456;8.5042;9.4737;40.0;-1.1;-16.1;278.9;-24.88;1.29;62.677;19.519785;-96.91556;4334.95;0.0;51.612904;12 / 12;85.3;25.0;3.672;162586;2014-11-09 13:42:10:558
-0.2682;3.3327;7.5848;14.0741;38.3;5.5;-16.7;288.42;-22.78;1.53;77.458;19.519785;-96.91556;4334.95;0.0;51.612904;12 / 12;85.3;25.0;3.672;163087;2014-11-09 13:42:11:059
0.1149;3.6392;8.1594;14.2593;31.1;7.6;-19.8;296.03;-24.04;-0.81;71.786;19.519785;-96.91556;4334.95;0.0;51.612904;14 / 14;85.3;25.0;3.672;163588;2014-11-09 13:42:11:560
0.8428;3.6392;8.8107;9.4737;33.8;1.1;-19.9;286.9;-24.87;2.85;69.092;19.519785;-96.91556;4334.95;0.0;51.612904;14 / 14;85.3;25.0;3.672;164089;2014-11-09 13:42:12:061
-1.1492;4.4819;7.1635;9.4737;28.8;6.9;-19.6;306.36;-31.71;9.11;65.854;19.519787;-96.915565;4333.73;1.2;51.612904;14 / 14;85.3;25.0;3.672;164589;2014-11-09 13:42:12:561
-0.0766;4.2521;7.1251;13.8889;35.4;-0.1;-15.8;276.92;-22.78;-7.16;68.426;19.519787;-96.915565;4333.73;1.2;51.612904;14 / 14;85.3;25.0;3.672;165089;2014-11-09 13:42:13:061
0.8045;4.9799;7.3167;9.4737;35.5;-2.6;-14.1;274.76;-34.08;-6.27;72.142;19.519787;-96.915565;4333.73;1.2;51.612904;14 / 14;85.3;25.0;3.672;165589;2014-11-09 13:42:13:561
0.6129;4.367;6.7038;14.0741;37.1;-3.0;-13.2;281.29;-37.61;4.17;66.253;19.519787;-96.915565;4333.73;1.2;51.612904;14 / 14;85.3;25.0;3.672;166090;2014-11-09 13:42:14:062
0.6129;5.2864;9.845;5.2632;37.0;-5.2;-13.2;276.36;-31.84;4.16;73.982;19.519789;-96.91557;4331.98;3.23;25.806452;14 / 14;85.3;25.0;3.672;166590;2014-11-09 13:42:14:562
0.2298;5.4013;7.355;0.0;35.8;-3.1;-17.4;280.79;-34.8;-0.92;70.073;19.519789;-96.91557;4331.98;3.23;25.806452;14 / 14;85.3;25.0;3.672;167091;2014-11-09 13:42:15:063
-0.1915;5.3247;7.0102;0.0;34.9;-6.1;-16.9;279.98;-37.21;1.57;69.206;19.519789;-96.91558;4331.06;2.28;51.612904;14 / 14;85.3;25.0;3.672;167591;2014-11-09 13:42:15:563
0.6512;5.9759;9.347;0.0;34.1;-4.5;-19.4;280.54;-32.12;-1.03;63.541;19.519789;-96.91558;4331.06;2.28;51.612904;14 / 14;85.3;25.0;3.672;168092;2014-11-09 13:42:16:064
0.2682;5.1715;7.5848;0.0;31.6;-2.6;-22.7;286.68;-34.27;-2.02;69.54;19.519789;-96.91559;4330.95;0.0;51.612904;14 / 14;85.3;25.0;3.672;168592;2014-11-09 13:42:16:564
0.6129;3.6392;7.5465;0.0;31.2;-7.1;-22.6;268.4;-18.43;-8.8;69.119;19.519789;-96.91559;4330.95;0.0;51.612904;14 / 14;85.3;25.0;3.672;169092;2014-11-09 13:42:17:064
1.5706;4.865;9.232;0.0;32.2;-17.5;-15.9;253.27;-27.45;-9.66;69.642;19.519789;-96.91561;4330.84;0.0;51.612904;14 / 14;85.3;25.0;3.672;169592;2014-11-09 13:42:17:564
1.7238;4.6352;10.8793;0.0;29.9;-24.0;-11.5;241.42;-30.16;-6.25;70.335;19.519789;-96.91561;4330.84;0.0;51.612904;14 / 14;85.3;25.0;3.672;170093;2014-11-09 13:42:18:065
0.3065;3.371;8.3127;0.0;17.2;-24.6;-12.0;220.47;-15.65;-6.37;66.49;19.519789;-96.91562;4329.77;0.0;25.806452;14 / 14;85.3;25.0;3.672;170594;2014-11-09 13:42:18:566
0.8428;3.6392;6.3973;0.0;15.1;-26.6;-8.3;214.54;-20.06;-12.9;69.599;19.519789;-96.91562;4329.77;0.0;25.806452;14 / 14;85.3;25.0;3.672;171094;2014-11-09 13:42:19:066
0.4214;4.865;11.3772;6.3158;16.0;-27.0;-8.6;215.29;-16.92;-4.96;69.018;19.519789;-96.91562;4329.77;0.0;25.806452;16 / 16;85.3;25.0;3.672;171595;2014-11-09 13:42:19:567
0.4597;3.8307;7.8147;4.2105;15.9;-29.2;-6.4;212.88;-21.32;-1.53;69.142;19.519789;-96.91562;4329.77;0.0;25.806452;16 / 16;85.3;25.0;3.672;172096;2014-11-09 13:42:20:068
2.5666;4.367;6.9719;4.7368;13.0;-30.8;-2.5;204.68;-30.45;-20.21;70.417;19.519789;-96.915634;4329.56;0.0;51.612904;15 / 15;85.3;25.0;3.672;172596;2014-11-09 13:42:20:568
1.0343;2.7581;6.6655;8.9474;14.2;-30.5;-3.6;209.34;-27.16;-4.94;68.851;19.519789;-96.915634;4329.56;0.0;51.612904;15 / 15;85.3;25.0;3.672;173097;2014-11-09 13:42:21:069
1.0343;3.0646;8.2361;14.6296;20.6;-27.7;-8.2;221.79;-20.26;-7.16;66.3;19.519789;-96.915634;4329.56;0.0;51.612904;15 / 15;85.3;25.0;3.672;173597;2014-11-09 13:42:21:569
-0.2298;6.0908;12.6797;14.8148;19.9;-27.6;-3.6;216.31;-23.32;-22.29;69.691;19.519789;-96.915634;4329.56;0.0;51.612904;15 / 15;85.3;25.0;3.672;174098;2014-11-09 13:42:22:070
0.5363;3.9456;7.7381;8.9474;23.0;-27.1;1.6;221.6;-26.96;-3.96;71.097;19.51978;-96.915634;4329.34;0.0;51.612904;15 / 15;85.3;25.0;3.672;174598;2014-11-09 13:42:22:570
0.996;2.988;6.2058;8.4211;22.2;-30.1;6.6;213.15;-25.43;-9.12;68.42;19.51978;-96.915634;4329.34;0.0;51.612904;15 / 15;85.3;25.0;3.672;175098;2014-11-09 13:42:23:070
1.6472;2.4134;6.3207;5.2632;27.7;-28.4;6.9;219.2;-20.28;-14.61;69.365;19.51978;-96.915634;4329.34;0.0;51.612904;15 / 15;85.3;25.0;3.672;175598;2014-11-09 13:42:23:570
0.8045;4.0606;7.3933;4.7368;30.5;-25.2;5.3;225.66;-37.03;-15.58;65.736;19.51978;-96.915634;4329.34;0.0;51.612904;15 / 15;85.3;25.0;3.672;176098;2014-11-09 13:42:24:070
1.8004;8.0062;10.9942;6.3158;27.0;-25.7;5.1;224.23;-35.7;-9.3;68.625;19.519773;-96.91564;4329.15;0.0;51.612904;15 / 15;85.3;25.0;3.672;176598;2014-11-09 13:42:24:570
1.5706;6.7421;10.9176;0.0;28.1;-26.3;3.3;227.85;-32.38;-5.43;73.542;19.519773;-96.91564;4329.15;0.0;51.612904;15 / 15;85.3;25.0;3.672;177098;2014-11-09 13:42:25:070
0.996;4.7118;7.2018;0.0;26.5;-26.0;3.5;225.23;-32.95;-7.87;70.08;19.519773;-96.91564;4329.15;0.0;51.612904;15 / 15;85.3;25.0;3.672;177598;2014-11-09 13:42:25:570
-0.996;4.367;6.3207;0.0;27.0;-25.8;4.5;226.02;-28.41;-2.53;70.047;19.519773;-96.91564;4329.15;0.0;51.612904;15 / 15;85.3;25.0;3.672;178099;2014-11-09 13:42:26:071
2.1452;4.8267;10.4196;0.0;23.9;-24.9;0.0;223.51;-24.4;-11.63;67.092;19.519773;-96.91564;4329.15;0.0;51.612904;15 / 15;85.3;25.0;3.672;178601;2014-11-09 13:42:26:573
1.4174;6.6272;12.3349;0.0;21.7;-26.0;3.8;217.89;-35.36;-13.17;72.46;19.519773;-96.91564;4329.15;0.0;51.612904;15 / 15;85.3;25.0;3.672;179102;2014-11-09 13:42:27:074
0.4597;5.1715;10.9942;0.0;21.8;-26.3;2.0;224.88;-27.26;11.14;68.301;19.519773;-96.91564;4329.15;0.0;51.612904;15 / 15;85.3;25.0;3.672;179603;2014-11-09 13:42:27:575
1.3408;3.869;7.4316;0.0;9.3;-26.1;1.8;200.82;-27.11;2.47;65.415;19.519773;-96.91564;4329.15;0.0;51.612904;15 / 15;85.3;25.0;3.672;180103;2014-11-09 13:42:28:075
-1.2258;3.6009;8.2361;6.8421;6.9;-25.9;2.5;195.96;-25.15;1.43;72.21;19.519768;-96.91564;4328.78;0.0;51.612904;15 / 15;85.3;25.0;3.672;180603;2014-11-09 13:42:28:575
0.5746;4.2138;9.9982;8.9474;1.9;-25.6;3.6;184.45;-24.73;-0.48;69.298;19.519768;-96.91564;4328.78;0.0;51.612904;15 / 15;85.3;25.0;3.672;181103;2014-11-09 13:42:29:075
0.7278;4.2904;8.6191;14.2593;-8.8;-15.1;0.3;145.87;-26.91;-1.45;63.796;19.519768;-96.91564;4328.78;0.0;51.612904;15 / 15;85.3;25.0;3.672;181603;2014-11-09 13:42:29:575
0.9577;4.5203;10.2663;31.3636;-9.3;-12.6;-0.9;140.63;-27.03;-3.56;62.071;19.519768;-96.91564;4328.78;0.0;51.612904;15 / 15;85.3;25.0;3.672;182103;2014-11-09 13:42:30:075
1.5323;4.1372;9.9982;34.0909;-9.5;-12.6;-1.5;141.87;-22.25;-8.71;72.719;19.519768;-96.91564;4328.78;0.0;51.612904;15 / 15;85.3;25.0;3.672;182604;2014-11-09 13:42:30:576
-0.0766;4.9416;7.2018;36.8182;0.2;-22.2;1.6;178.27;-28.18;-17.87;67.89;19.519768;-96.91564;4328.78;0.0;51.612904;15 / 15;85.3;25.0;3.672;183105;2014-11-09 13:42:31:077
0.4214;3.984;7.0485;43.9091;1.5;-23.5;4.4;184.56;-29.43;-3.42;61.696;19.519768;-96.91565;4328.55;0.0;38.709675;15 / 15;85.3;25.0;3.672;183605;2014-11-09 13:42:31:577
3.0646;4.7501;6.3207;46.0909;2.9;-24.7;10.4;180.1;-38.66;-16.45;63.903;19.519768;-96.91565;4328.55;0.0;38.709675;15 / 15;85.3;25.0;3.672;184105;2014-11-09 13:42:32:077
2.4134;6.359;8.734;371.4286;3.9;-26.0;8.3;183.75;-35.06;-15.45;69.5;19.519764;-96.91564;4328.55;0.0;51.612904;16 / 16;85.3;25.0;3.672;184605;2014-11-09 13:42:32:577
3.1029;6.857;7.0102;141.4773;1.6;-25.8;9.8;177.15;-34.29;-18.93;66.268;19.519764;-96.91564;4328.55;0.0;51.612904;16 / 16;85.3;25.0;3.672;185105;2014-11-09 13:42:33:077
2.6432;4.9799;5.5545;316.6667;3.1;-25.4;11.5;174.83;-38.99;-25.45;65.85;19.519753;-96.915634;4328.96;1.82;25.806452;16 / 16;85.3;25.0;3.672;185605;2014-11-09 13:42:33:577
2.49;5.5545;7.8147;355.9524;3.2;-26.6;12.9;175.3;-45.1;-23.05;75.403;19.519753;-96.915634;4328.96;1.82;25.806452;16 / 16;85.3;25.0;3.672;186105;2014-11-09 13:42:34:077
-0.6129;5.4013;8.3893;453.5715;6.2;-27.7;6.6;193.48;-32.71;4.18;74.951;19.519745;-96.915634;4329.01;0.0;25.806452;16 / 16;85.3;25.0;3.672;186605;2014-11-09 13:42:34:577
-0.1915;5.1715;7.8147;602.381;9.4;-27.7;3.3;199.4;-32.93;-1.75;74.891;19.519745;-96.915634;4329.01;0.0;25.806452;16 / 16;85.3;25.0;3.672;187106;2014-11-09 13:42:35:078
1.0726;4.9033;6.5888;497.6191;6.6;-28.3;7.6;191.39;-36.3;-9.25;73.713;19.519735;-96.915634;4329.65;1.43;25.806452;16 / 16;85.3;25.0;3.672;187606;2014-11-09 13:42:35:578
3.1795;5.1715;7.7381;146.5909;6.5;-28.9;7.9;189.79;-37.27;-13.33;72.456;19.519735;-96.915634;4329.65;1.43;25.806452;16 / 16;85.3;25.0;3.672;188106;2014-11-09 13:42:36:078
0.9577;6.8187;8.5042;462.5;8.2;-29.3;7.2;192.96;-36.15;-10.94;63.392;19.519724;-96.91563;4330.11;1.45;38.709675;16 / 16;85.3;25.0;3.672;188607;2014-11-09 13:42:36:579
0.3448;5.1332;7.3167;822.0238;5.7;-29.1;6.5;190.47;-35.4;-6.38;62.335;19.519724;-96.91563;4330.11;1.45;38.709675;16 / 16;85.3;25.0;3.672;189107;2014-11-09 13:42:37:079
1.2641;5.6695;6.8953;869.643;4.1;-27.7;6.0;183.28;-30.34;-20.98;62.63;19.519716;-96.91563;4330.13;0.0;38.709675;16 / 16;85.3;25.0;3.672;189607;2014-11-09 13:42:37:579
2.6815;7.2401;7.6614;558.9286;-8.9;-18.3;8.4;149.84;-40.89;-10.33;69.063;19.519716;-96.91563;4330.13;0.0;38.709675;16 / 16;85.3;25.0;3.672;190107;2014-11-09 13:42:38:079
3.0263;9.0788;3.6392;116.5909;-13.2;-13.0;17.0;108.35;-66.51;-47.09;61.803;19.519705;-96.91562;4330.22;2.18;38.709675;16 / 16;85.3;25.0;3.672;190613;2014-11-09 13:42:38:585
3.7158;6.359;4.8267;477.9762;-12.9;-13.2;16.6;122.38;-37.83;-39.59;65.957;19.519705;-96.91562;4330.22;2.18;38.709675;16 / 16;85.3;25.0;3.672;191113;2014-11-09 13:42:39:085
2.6049;6.7038;6.5122;543.4524;-12.0;-12.4;14.4;131.73;-43.7;-21.8;65.239;19.519691;-96.91562;4330.36;0.0;51.612904;16 / 16;85.3;25.0;3.672;191613;2014-11-09 13:42:39:585
3.5243;7.7764;3.2178;128.8636;-12.2;-8.9;16.2;106.56;-51.63;-51.82;66.11;19.519691;-96.91562;4330.36;0.0;51.612904;16 / 16;85.3;25.0;3.672;192113;2014-11-09 13:42:40:085
5.0949;5.4013;5.8227;567.2619;-14.6;-3.3;4.7;85.92;-34.92;-41.19;69.049;19.519691;-96.91562;4330.36;0.0;51.612904;16 / 16;85.3;25.0;3.672;192613;2014-11-09 13:42:40:585
3.371;5.2481;7.2401;555.9524;-15.3;1.7;-3.8;66.31;-36.24;-13.54;69.834;19.519691;-96.91562;4330.36;0.0;51.612904;16 / 16;85.3;25.0;3.672;193114;2014-11-09 13:42:41:086
2.2984;2.7198;7.6998;503.5715;-14.3;4.4;-5.3;61.13;-18.7;-16.62;63.706;19.519678;-96.91562;4331.21;1.44;25.806452;16 / 16;85.3;25.0;3.672;193614;2014-11-09 13:42:41:586
4.5586;3.869;8.9256;570.8334;-8.6;9.1;-12.9;10.02;-23.04;-25.44;66.954;19.519678;-96.91562;4331.21;1.44;25.806452;16 / 16;85.3;25.0;3.672;194114;2014-11-09 13:42:42:086
0.3831;-0.0766;6.6272;1468.5714;7.8;31.9;-16.4;339.45;-17.9;-19.35;68.571;19.519669;-96.91562;4331.88;1.28;25.806452;16 / 16;85.3;25.0;3.672;194615;2014-11-09 13:42:42:587
1.6855;-1.6089;9.3853;1432.619;11.6;38.6;-11.2;337.38;8.64;-28.93;72.76;19.519669;-96.91562;4331.88;1.28;25.806452;16 / 16;85.3;25.0;3.672;195115;2014-11-09 13:42:43:087
2.5666;-5.6695;7.8913;538.0952;18.5;44.9;-1.6;335.48;23.04;-9.18;73.728;19.519653;-96.91561;4332.35;1.53;25.806452;16 / 16;85.3;25.0;3.672;195615;2014-11-09 13:42:43:587
2.5283;-6.5888;8.5808;1358.0952;19.8;46.3;0.5;331.73;50.57;-18.16;73.2;19.519653;-96.91561;4332.35;1.53;25.806452;16 / 16;85.3;25.0;3.672;196115;2014-11-09 13:42:44:087
0.2298;-7.1251;5.6695;1377.381;19.9;47.1;14.0;334.58;51.47;-2.32;73.07;19.519642;-96.91561;4333.04;0.0;25.806452;16 / 16;85.3;25.0;3.672;196615;2014-11-09 13:42:44:587
0.7278;-8.4659;5.5545;902.381;19.5;47.4;19.6;343.3;57.96;-15.89;71.163;19.519642;-96.91561;4333.04;0.0;25.806452;16 / 16;85.3;25.0;3.672;197116;2014-11-09 13:42:45:088
-0.3448;-9.0788;3.371;704.7619;20.4;46.8;23.7;328.81;69.53;5.84;67.186;19.519636;-96.91561;4333.08;0.0;19.35484;16 / 16;85.3;25.0;3.672;197616;2014-11-09 13:42:45:588
2.7581;-0.1915;9.73;1464.762;-26.2;26.0;-19.6;44.18;1.86;-3.94;69.151;19.519636;-96.91561;4333.08;0.0;19.35484;16 / 16;85.3;25.0;3.672;198116;2014-11-09 13:42:46:088
3.4093;2.0686;9.2703;670.2381;-33.9;-3.1;-23.6;80.19;-11.83;-20.19;72.161;19.519636;-96.91561;4333.08;0.0;19.35484;16 / 16;85.3;25.0;3.672;198616;2014-11-09 13:42:46:588
6.0908;1.8004;6.5888;1392.381;-36.2;-14.6;-9.5;113.81;-4.88;-23.23;65.409;19.519636;-96.91561;4333.08;0.0;19.35484;16 / 16;85.3;25.0;3.672;199116;2014-11-09 13:42:47:088
4.6735;4.7884;6.3973;1401.9048;-29.8;-26.9;-3.0;119.49;-31.15;-36.15;67.462;19.519625;-96.91561;4333.16;0.0;25.806452;15 / 15;85.3;25.0;3.672;199616;2014-11-09 13:42:47:588
1.6855;9.845;1.3024;423.8095;-13.7;-30.4;19.4;120.33;-62.21;-54.11;68.957;19.519625;-96.91561;4333.16;0.0;25.806452;15 / 15;85.3;25.0;3.672;200116;2014-11-09 13:42:48:088
1.9154;8.734;2.6815;397.0238;0.9;-33.6;19.8;158.73;-69.33;-35.54;64.183;19.519613;-96.9156;4333.61;0.0;38.709675;16 / 16;85.3;25.0;3.672;200617;2014-11-09 13:42:48:589
0.8045;9.9599;2.873;353.5714;1.1;-33.4;21.1;170.39;-83.25;-14.04;70.469;19.519613;-96.9156;4333.61;0.0;38.709675;16 / 16;85.3;25.0;3.672;201117;2014-11-09 13:42:49:089
-1.2641;9.3853;5.0949;878.5714;2.3;-35.9;13.1;190.21;-60.78;13.93;67.658;19.519604;-96.9156;4333.97;0.0;51.612904;16 / 16;85.3;25.0;3.672;201617;2014-11-09 13:42:49:589
-0.2298;6.8953;5.4013;1367.619;2.4;-36.7;7.5;182.09;-54.24;-6.86;67.142;19.519604;-96.9156;4333.97;0.0;51.612904;16 / 16;85.3;25.0;3.672;202117;2014-11-09 13:42:50:089
0.3831;8.6574;5.5162;1377.1428;-3.7;-37.6;14.3;171.19;-57.43;-3.97;52.374;19.519604;-96.9156;4333.97;0.0;51.612904;16 / 16;85.3;25.0;3.672;202617;2014-11-09 13:42:50:589
0.7661;10.2663;2.0303;490.4762;-0.7;-33.6;24.2;160.62;-75.49;-23.2;50.976;19.519604;-96.9156;4333.97;0.0;51.612904;16 / 16;85.3;25.0;3.672;203117;2014-11-09 13:42:51:089
1.3408;9.3087;0.2682;426.1905;7.6;-31.1;24.7;126.72;-81.64;-78.69;47.375;19.519602;-96.91561;4334.97;0.0;25.806452;16 / 16;85.3;25.0;3.672;203617;2014-11-09 13:42:51:589
0.4597;9.0405;-0.1532;332.1429;7.3;-29.6;25.8;141.75;-85.54;-56.31;50.742;19.519602;-96.91561;4334.97;0.0;25.806452;16 / 16;85.3;25.0;3.672;204117;2014-11-09 13:42:52:089
0.5746;9.4236;-0.4214;350.5953;8.4;-28.1;27.0;74.45;-85.68;-126.25;44.852;19.519596;-96.91561;4335.61;1.47;38.709675;16 / 16;85.3;25.0;3.672;204617;2014-11-09 13:42:52:589
0.7278;9.347;-0.5363;329.7619;9.2;-27.7;27.0;78.99;-84.33;-124.99;47.573;19.519596;-96.91561;4335.61;1.47;38.709675;16 / 16;85.3;25.0;3.672;205117;2014-11-09 13:42:53:089
0.7278;9.4236;-0.4214;350.5953;9.6;-27.7;26.6;85.24;-84.9;-120.07;47.184;19.519596;-96.91561;4335.61;1.47;38.709675;16 / 16;85.3;25.0;3.672;205617;2014-11-09 13:42:53:589
0.2298;9.1171;-0.1915;381.5476;9.4;-27.9;26.4;17.13;-86.06;176.82;49.637;19.519596;-96.91561;4335.61;1.47;38.709675;16 / 16;85.3;25.0;3.672;206117;2014-11-09 13:42:54:089
0.6895;9.1937;-0.498;342.2619;9.2;-28.3;25.8;78.6;-84.71;-125.84;44.992;19.519592;-96.91562;4335.8;0.0;19.35484;16 / 16;85.3;25.0;3.672;206617;2014-11-09 13:42:54:589
0.3448;9.3853;-0.996;355.9524;9.2;-28.3;26.2;89.96;-85.27;-113.96;45.539;19.519592;-96.91562;4335.8;0.0;19.35484;16 / 16;85.3;25.0;3.672;207117;2014-11-09 13:42:55:089
0.3448;9.4236;-0.5746;305.3572;10.1;-27.7;26.8;55.84;-85.06;-148.57;55.817;19.519592;-96.91562;4335.8;0.0;19.35484;16 / 16;85.3;25.0;3.672;207617;2014-11-09 13:42:55:589
0.2298;9.4236;-0.6512;292.8572;10.5;-27.1;27.2;39.11;-85.19;-165.96;44.63;19.519592;-96.91562;4335.8;0.0;19.35484;16 / 16;85.3;25.0;3.672;208117;2014-11-09 13:42:56:089
0.3065;9.3853;-0.6512;303.5714;10.9;-26.5;27.2;49.32;-85.42;-156.04;42.74;19.519592;-96.91562;4335.8;0.0;19.35484;16 / 16;85.3;25.0;3.672;208617;2014-11-09 13:42:56:589
0.2682;9.4236;-0.8428;300.5953;11.1;-26.5;27.2;46.52;-84.78;-159.15;42.823;19.519592;-96.91562;4335.8;0.0;19.35484;16 / 16;85.3;25.0;3.672;209117;2014-11-09 13:42:57:089
0.3831;9.347;-0.5746;305.9524;10.2;-26.5;27.0;57.27;-85.81;-146.31;42.685;19.519592;-96.91562;4335.8;0.0;19.35484;16 / 16;85.3;25.0;3.672;209617;2014-11-09 13:42:57:589
0.3065;9.3087;-0.5746;308.3333;10.0;-26.7;27.2;55.81;-85.61;-147.99;60.33;19.519592;-96.91562;4335.8;0.0;19.35484;16 / 16;85.3;25.0;3.672;210117;2014-11-09 13:42:58:089
0.4214;9.4619;-0.7661;319.0476;10.2;-27.1;27.2;62.02;-85.81;-141.84;43.439;19.519592;-96.91562;4335.8;0.0;19.35484;16 / 16;85.3;25.0;3.672;210617;2014-11-09 13:42:58:589
0.5746;9.3087;-0.5363;326.7857;10.4;-27.3;26.8;54.54;-84.34;-150.25;42.331;19.519592;-96.91562;4335.8;0.0;19.35484;16 / 16;85.3;25.0;3.672;211118;2014-11-09 13:42:59:090
0.3065;9.4236;-0.3831;363.0953;11.2;-27.5;26.0;64.19;-87.02;-141.34;41.474;19.519592;-96.91562;4335.8;0.0;19.35484;15 / 15;85.3;25.0;3.672;211618;2014-11-09 13:42:59:590
0.5746;9.4236;-0.498;363.6905;12.0;-27.7;25.2;81.91;-86.19;-127.57;41.213;19.519592;-96.91562;4335.8;0.0;19.35484;15 / 15;85.3;25.0;3.672;212118;2014-11-09 13:43:00:090
0.498;9.3853;-0.498;350.5953;12.6;-27.9;24.6;76.67;-85.71;-135.0;44.318;19.519596;-96.91562;4339.62;0.0;38.709675;15 / 15;85.3;25.0;3.672;212620;2014-11-09 13:43:00:592
0.5363;9.3853;-0.4214;352.9762;11.9;-27.9;24.4;80.46;-85.37;-130.91;41.366;19.519596;-96.91562;4339.62;0.0;38.709675;15 / 15;85.3;25.0;3.672;213120;2014-11-09 13:43:01:092
0.6512;9.4236;-0.498;355.3572;11.9;-27.9;24.4;84.36;-85.03;-127.41;41.328;19.519596;-96.91562;4339.62;0.0;38.709675;15 / 15;85.3;25.0;3.672;213620;2014-11-09 13:43:01:592
0.6512;9.4236;-0.4597;352.381;12.5;-27.9;24.6;83.17;-85.19;-129.09;41.66;19.519596;-96.91562;4339.62;0.0;38.709675;15 / 15;85.3;25.0;3.672;214120;2014-11-09 13:43:02:092
0.1915;9.1937;-0.3831;358.3333;12.1;-27.9;24.4;84.6;-85.31;-126.87;42.099;19.519596;-96.91562;4339.62;0.0;38.709675;15 / 15;85.3;25.0;3.672;214621;2014-11-09 13:43:02:593
3.0646;9.5768;1.3791;582.1428;-1.2;-30.9;24.4;158.47;-82.61;-22.48;43.126;19.519596;-96.91562;4339.62;0.0;38.709675;15 / 15;85.3;25.0;3.672;215121;2014-11-09 13:43:03:093
6.1675;7.5082;1.1492;420.8334;-26.1;-21.1;24.8;84.87;-50.12;-79.44;42.872;19.519585;-96.91561;4340.55;0.0;38.709675;15 / 15;85.3;25.0;3.672;215622;2014-11-09 13:43:03:594
4.9033;8.1211;0.498;476.1905;-25.1;-22.2;25.7;76.73;-53.95;-87.61;42.07;19.519585;-96.91561;4340.55;0.0;38.709675;15 / 15;85.3;25.0;3.672;216122;2014-11-09 13:43:04:094
1.992;9.5002;2.0303;472.6191;-15.4;-30.5;23.7;118.52;-73.33;-44.45;42.657;19.51958;-96.91562;4340.77;0.0;38.709675;15 / 15;85.3;25.0;3.672;216622;2014-11-09 13:43:04:594
1.8004;8.351;3.1029;476.1905;-11.7;-32.3;21.3;143.01;-68.05;-22.97;47.312;19.51958;-96.91562;4340.77;0.0;38.709675;15 / 15;85.3;25.0;3.672;217122;2014-11-09 13:43:05:094
2.4517;9.0405;2.6432;467.8572;-11.7;-32.5;20.6;128.83;-68.26;-42.85;61.549;19.51958;-96.91562;4340.77;0.0;38.709675;15 / 15;85.3;25.0;3.672;217622;2014-11-09 13:43:05:594
2.4134;9.2703;1.2641;363.6905;-9.2;-31.9;25.1;117.26;-75.26;-58.39;42.853;19.51958;-96.91562;4340.77;0.0;38.709675;15 / 15;85.3;25.0;3.672;218122;2014-11-09 13:43:06:094
0.8428;7.9679;0.2298;358.3333;-6.4;-30.4;25.7;99.19;-83.74;-74.75;42.693;19.51958;-96.91562;4340.77;0.0;38.709675;15 / 15;85.3;25.0;3.672;218622;2014-11-09 13:43:06:594
-1.6089;10.5345;3.1412;326.1905;-6.7;-31.6;21.8;178.43;-66.31;15.33;58.487;19.51958;-96.91562;4340.77;0.0;38.709675;15 / 15;85.3;25.0;3.672;219122;2014-11-09 13:43:07:094
1.7238;9.6151;1.7238;391.6667;-15.6;-31.1;22.4;113.59;-75.77;-45.0;51.924;19.519575;-96.91562;4341.07;0.0;25.806452;15 / 15;85.3;25.0;3.672;219622;2014-11-09 13:43:07:594
-0.4597;9.0788;2.9113;293.4524;-24.0;-31.0;8.8;109.7;-72.17;-21.29;73.176;19.519575;-96.91562;4341.07;0.0;25.806452;15 / 15;85.3;25.0;3.672;220122;2014-11-09 13:43:08:094
-3.869;6.9336;3.2178;129.8864;-8.6;-36.9;7.3;179.31;-54.03;50.25;63.253;19.519575;-96.91562;4341.07;0.0;25.806452;15 / 15;85.3;25.0;3.672;220622;2014-11-09 13:43:08:594
-5.2864;7.1251;3.1029;345.8333;-1.4;-36.7;12.3;198.23;-45.69;61.5;66.541;19.519575;-96.91562;4341.07;0.0;25.806452;15 / 15;85.3;25.0;3.672;221122;2014-11-09 13:43:09:094
-3.9456;7.2784;3.4093;65.7273;-0.2;-37.1;12.5;199.07;-54.38;49.17;61.998;19.519567;-96.91562;4341.56;1.84;25.806452;15 / 15;85.3;25.0;3.672;221622;2014-11-09 13:43:09:594
-4.0223;7.5848;4.1755;74.4545;-3.0;-36.5;14.4;187.58;-55.65;29.19;62.172;19.519567;-96.91562;4341.56;1.84;25.806452;15 / 15;85.3;25.0;3.672;222122;2014-11-09 13:43:10:094
-4.2904;6.2824;3.8307;69.5455;-6.1;-36.5;-12.1;149.2;-47.53;48.24;66.256;19.519567;-96.91562;4341.56;1.84;25.806452;15 / 15;85.3;25.0;3.672;222622;2014-11-09 13:43:10:594
-5.7078;7.2401;3.6392;120.6818;-7.2;-35.1;-11.1;151.32;-46.81;56.79;63.808;19.519567;-96.91562;4341.56;1.84;25.806452;15 / 15;85.3;25.0;3.672;223123;2014-11-09 13:43:11:095
-6.0525;6.8187;3.6775;121.0227;-7.4;-36.3;-5.2;164.77;-44.05;61.26;62.295;19.519562;-96.91561;4342.26;0.0;19.35484;16 / 16;85.3;25.0;3.672;223623;2014-11-09 13:43:11:595
-6.8187;6.4356;2.1452;118.2955;-6.7;-35.0;-16.1;147.42;-41.19;70.88;61.349;19.519562;-96.91561;4342.26;0.0;19.35484;16 / 16;85.3;25.0;3.672;224123;2014-11-09 13:43:12:095
-5.6695;7.0868;2.1835;304.1667;-2.2;-28.1;-23.0;124.1;-45.71;69.16;61.142;19.519562;-96.91561;4342.26;0.0;19.35484;16 / 16;85.3;25.0;3.672;224623;2014-11-09 13:43:12:595
-6.8187;7.6998;3.1029;335.7143;-3.7;-26.2;-24.0;117.81;-48.57;65.2;60.521;19.519562;-96.91561;4342.26;0.0;19.35484;16 / 16;85.3;25.0;3.672;225123;2014-11-09 13:43:13:095
-1.5323;8.734;3.371;121.0227;-5.5;-18.2;-30.4;56.79;-63.33;30.44;59.954;19.519562;-96.91561;4342.26;0.0;19.35484;16 / 16;85.3;25.0;3.672;225623;2014-11-09 13:43:13:595
0.7278;8.0828;4.3287;129.8864;-4.3;-15.8;-32.3;357.63;-65.36;-8.79;60.556;19.519562;-96.91561;4342.26;0.0;19.35484;16 / 16;85.3;25.0;3.672;226123;2014-11-09 13:43:14:095
2.0686;9.0788;3.0646;135.6818;3.3;-15.4;-32.1;320.33;-65.01;-24.07;63.558;19.51956;-96.9156;4342.48;1.32;19.35484;16 / 16;85.3;25.0;3.672;226623;2014-11-09 13:43:14:595
0.6129;9.3853;2.6815;121.3636;10.6;-19.6;-26.4;344.78;-75.96;10.74;62.882;19.51956;-96.9156;4342.48;1.32;19.35484;16 / 16;85.3;25.0;3.672;227123;2014-11-09 13:43:15:095
0.1915;8.734;3.3327;139.0909;1.5;-17.2;-30.7;350.57;-69.08;-3.29;60.856;19.51956;-96.9156;4342.48;1.32;19.35484;16 / 16;85.3;25.0;3.672;227623;2014-11-09 13:43:15:595
0.5746;8.849;3.0646;131.9318;0.3;-16.8;-31.2;354.69;-68.77;-3.9;60.602;19.51956;-96.9156;4342.48;1.32;19.35484;16 / 16;85.3;25.0;3.672;228124;2014-11-09 13:43:16:096
-0.498;9.0022;3.7924;286.9048;3.6;-15.3;-31.9;0.48;-66.98;7.48;60.422;19.51956;-96.9156;4342.48;1.32;19.35484;16 / 16;85.3;25.0;3.672;228624;2014-11-09 13:43:16:596
-3.0263;6.7038;6.0525;477.9762;12.9;1.5;-32.5;1.68;-48.79;23.44;59.759;19.51956;-96.9156;4342.48;1.32;19.35484;16 / 16;85.3;25.0;3.672;229124;2014-11-09 13:43:17:096
-2.0686;7.2784;4.9033;345.2381;9.7;-5.3;-33.1;8.31;-53.83;22.87;64.36;19.519567;-96.9156;4342.48;0.0;19.35484;16 / 16;85.3;25.0;3.672;229624;2014-11-09 13:43:17:596
-1.992;7.6231;4.9799;288.0953;10.4;-6.2;-33.3;6.98;-54.85;21.88;60.562;19.519567;-96.9156;4342.48;0.0;19.35484;16 / 16;85.3;25.0;3.672;230125;2014-11-09 13:43:18:097
-2.1452;7.8147;4.9033;131.25;10.2;-6.1;-33.5;9.29;-55.59;23.63;64.173;19.519567;-96.9156;4342.48;0.0;19.35484;16 / 16;85.3;25.0;3.672;230625;2014-11-09 13:43:18:597
-1.8771;7.9296;4.7118;291.0714;10.0;-6.5;-33.5;8.49;-56.53;23.14;59.873;19.519567;-96.9156;4342.48;0.0;19.35484;16 / 16;85.3;25.0;3.672;231126;2014-11-09 13:43:19:098
-1.8387;7.853;4.9033;450.5953;8.6;-7.3;-33.5;7.36;-56.3;20.56;59.932;19.519567;-96.9156;4342.48;0.0;19.35484;16 / 16;85.3;25.0;3.672;231626;2014-11-09 13:43:19:598
-1.9154;8.0062;4.7501;452.381;7.6;-7.5;-33.7;11.72;-57.33;21.88;60.644;19.519567;-96.9156;4342.48;0.0;19.35484;16 / 16;85.3;25.0;3.672;232126;2014-11-09 13:43:20:098
-2.4134;8.0062;5.0182;465.4762;11.4;-7.9;-33.3;10.47;-55.18;25.68;66.707;19.519567;-96.9156;4342.48;0.0;19.35484;16 / 16;85.3;25.0;3.672;232626;2014-11-09 13:43:20:598
-0.4597;7.8147;4.5203;482.1429;15.9;-10.2;-28.8;330.74;-61.5;6.82;61.382;19.519567;-96.9156;4342.48;0.0;19.35484;16 / 16;85.3;25.0;3.672;233126;2014-11-09 13:43:21:098
-2.0303;8.7724;5.0566;493.4524;23.7;-12.2;-19.6;319.27;-62.53;19.78;60.49;19.51957;-96.9156;4342.53;0.0;25.806452;16 / 16;85.3;25.0;3.672;233626;2014-11-09 13:43:21:598
-3.3327;8.0445;4.5203;735.7143;29.3;-15.2;-6.5;292.49;-55.34;33.25;60.741;19.51957;-96.9156;4342.53;0.0;25.806452;16 / 16;85.3;25.0;3.672;234126;2014-11-09 13:43:22:098
-6.4356;5.5545;3.2178;1377.381;33.1;-3.6;5.9;302.19;-47.82;55.38;61.657;19.51957;-96.9156;4342.53;0.0;25.806452;16 / 16;85.3;25.0;3.672;234626;2014-11-09 13:43:22:598
-8.0828;4.0989;3.7541;1436.1904;33.7;-0.8;12.8;292.75;-30.87;62.23;68.922;19.51957;-96.9156;4342.53;0.0;25.806452;16 / 16;85.3;25.0;3.672;235126;2014-11-09 13:43:23:098
-7.9679;4.3287;2.988;1407.8572;33.9;-0.2;12.1;292.78;-24.45;64.85;66.048;19.51957;-96.9156;4342.53;0.0;25.806452;16 / 16;85.3;25.0;3.672;235627;2014-11-09 13:43:23:599
-7.9679;4.2521;2.988;1375.4762;33.7;0.9;12.9;299.93;-26.29;71.4;63.185;19.51957;-96.9156;4342.53;0.0;25.806452;16 / 16;85.3;25.0;3.672;236128;2014-11-09 13:43:24:100
-7.9296;4.1372;3.4093;1426.6666;33.5;1.6;12.7;297.53;-25.29;67.36;64.592;19.51957;-96.9156;4342.53;0.0;25.806452;16 / 16;85.3;25.0;3.672;236628;2014-11-09 13:43:24:600
-7.9296;4.1755;3.1412;1422.8572;33.7;1.2;12.5;295.65;-25.61;66.73;64.256;19.51957;-96.9156;4342.53;0.0;25.806452;16 / 16;85.3;25.0;3.672;237128;2014-11-09 13:43:25:100
-7.6231;4.1755;3.2178;1428.8096;33.7;1.2;12.1;297.99;-26.78;67.11;62.922;19.51957;-96.9156;4342.53;0.0;25.806452;16 / 16;85.3;25.0;3.672;237629;2014-11-09 13:43:25:601
-0.3448;8.9256;2.3367;704.1667;21.7;-25.8;16.4;265.39;-57.63;67.67;66.418;19.51957;-96.9156;4342.53;0.0;25.806452;16 / 16;85.3;25.0;3.672;238129;2014-11-09 13:43:26:101
-0.1532;9.3087;1.9154;635.7143;18.0;-28.7;16.1;223.75;-78.34;4.57;64.677;19.519575;-96.9156;4342.07;0.0;19.35484;16 / 16;85.3;25.0;3.672;238630;2014-11-09 13:43:26:602
-0.2298;9.1554;1.6472;597.619;17.5;-28.7;16.3;226.4;-80.65;5.86;67.101;19.519575;-96.9156;4342.07;0.0;19.35484;16 / 16;85.3;25.0;3.672;239131;2014-11-09 13:43:27:103
-0.1149;9.1937;2.2601;675.0;17.5;-28.9;15.5;221.07;-76.17;2.91;67.628;19.519575;-96.9156;4342.07;0.0;19.35484;16 / 16;85.3;25.0;3.672;239632;2014-11-09 13:43:27:604
-0.0766;8.8873;2.2601;670.2381;17.7;-29.1;14.5;219.86;-76.02;0.0;68.231;19.519575;-96.9156;4342.07;0.0;19.35484;16 / 16;85.3;25.0;3.672;240132;2014-11-09 13:43:28:104
-0.4214;9.2703;3.1795;672.619;18.9;-29.1;10.9;229.33;-70.92;7.55;63.886;19.51958;-96.91559;4342.05;0.0;25.806452;16 / 16;85.3;25.0;3.672;240632;2014-11-09 13:43:28:604
-0.2682;8.849;3.371;452.381;19.5;-29.1;10.6;232.17;-70.33;9.81;63.48;19.51958;-96.91559;4342.05;0.0;25.806452;16 / 16;85.3;25.0;3.672;241132;2014-11-09 13:43:29:104
-0.5746;8.9639;3.1795;407.7381;20.1;-29.1;9.9;233.73;-70.18;10.24;64.942;19.519587;-96.91559;4342.04;0.0;25.806452;16 / 16;85.3;25.0;3.672;241632;2014-11-09 13:43:29:604
-0.498;8.849;3.371;441.6667;20.5;-28.9;9.9;234.58;-69.98;9.57;64.074;19.519587;-96.91559;4342.04;0.0;25.806452;16 / 16;85.3;25.0;3.672;242132;2014-11-09 13:43:30:104
-0.6129;8.849;3.5626;592.2619;20.7;-28.9;9.3;230.46;-68.29;3.77;62.704;19.519592;-96.91558;4342.02;0.0;25.806452;16 / 16;85.3;25.0;3.672;242632;2014-11-09 13:43:30:604
-0.5363;8.734;3.5243;397.6191;20.7;-28.9;8.5;232.75;-67.77;7.43;63.887;19.519592;-96.91558;4342.02;0.0;25.806452;16 / 16;85.3;25.0;3.672;243132;2014-11-09 13:43:31:104
-0.498;8.6574;3.486;457.1429;20.9;-28.9;8.1;235.46;-67.76;9.26;63.6;19.519598;-96.91558;4342.0;0.0;25.806452;16 / 16;85.3;25.0;3.672;243632;2014-11-09 13:43:31:604
-0.6512;8.6957;3.5626;501.1905;20.9;-28.9;7.9;233.93;-66.74;8.21;62.598;19.519598;-96.91558;4342.0;0.0;25.806452;16 / 16;85.3;25.0;3.672;244132;2014-11-09 13:43:32:104
-0.6512;8.734;3.6392;1386.9048;20.9;-28.5;7.7;235.94;-68.01;8.75;62.325;19.519604;-96.91558;4342.0;0.0;25.806452;16 / 16;85.3;25.0;3.672;244633;2014-11-09 13:43:32:605
-0.4597;8.6574;3.486;1381.1904;20.7;-28.5;7.7;233.82;-68.23;5.65;64.513;19.519604;-96.91558;4342.0;0.0;25.806452;16 / 16;85.3;25.0;3.672;245133;2014-11-09 13:43:33:105
-0.498;8.6957;3.6392;1392.619;20.7;-28.5;7.7;233.89;-66.82;7.13;62.459;19.519608;-96.91557;4341.97;0.0;25.806452;16 / 16;85.3;25.0;3.672;245633;2014-11-09 13:43:33:605
-0.5363;8.6574;3.6009;1401.9048;20.9;-28.5;7.7;233.75;-67.15;6.6;62.813;19.519608;-96.91557;4341.97;0.0;25.806452;16 / 16;85.3;25.0;3.672;246134;2014-11-09 13:43:34:106
-0.5363;8.6574;3.6775;1402.1428;20.9;-28.5;7.3;235.66;-66.77;7.63;71.203;19.519613;-96.91557;4341.93;0.0;25.806452;16 / 16;85.3;25.0;3.672;246634;2014-11-09 13:43:34:606
-0.4214;8.2744;3.3327;1394.5238;21.1;-28.5;7.5;233.62;-66.97;6.6;65.792;19.519613;-96.91557;4341.93;0.0;25.806452;16 / 16;85.3;25.0;3.672;247134;2014-11-09 13:43:35:106
0.0766;9.1171;2.9113;719.6429;20.5;-28.5;10.8;226.68;-72.28;-1.51;67.726;19.51962;-96.91557;4341.89;0.0;25.806452;16 / 16;85.3;25.0;3.672;247636;2014-11-09 13:43:35:608
1.0343;9.1937;3.5626;822.0238;12.6;-30.4;14.7;204.06;-67.47;-4.67;67.812;19.51962;-96.91557;4341.89;0.0;25.806452;16 / 16;85.3;25.0;3.672;248136;2014-11-09 13:43:36:108
0.9194;8.734;3.4093;712.5;7.8;-32.1;17.5;185.77;-67.99;-15.09;75.199;19.51962;-96.91557;4341.89;0.0;25.806452;16 / 16;85.3;25.0;3.672;248637;2014-11-09 13:43:36:609
2.7198;8.734;2.3367;636.9048;-4.7;-33.0;18.2;143.63;-69.01;-41.58;68.265;19.51962;-96.91557;4341.89;0.0;25.806452;16 / 16;85.3;25.0;3.672;249137;2014-11-09 13:43:37:109
1.6855;9.1937;2.873;664.881;-17.8;-30.2;21.1;125.55;-70.08;-30.4;62.805;19.51962;-96.91557;4341.89;0.0;25.806452;16 / 16;85.3;25.0;3.672;249638;2014-11-09 13:43:37:610
0.7278;8.8873;1.7238;336.9048;-25.8;-27.3;20.5;111.83;-78.47;-25.46;62.481;19.51962;-96.91557;4341.89;0.0;25.806452;16 / 16;85.3;25.0;3.672;250138;2014-11-09 13:43:38:110
3.6775;7.9296;2.7581;524.4048;-25.2;-26.6;14.8;98.48;-59.9;-53.13;62.129;19.51962;-96.91557;4341.89;0.0;25.806452;16 / 16;85.3;25.0;3.672;250638;2014-11-09 13:43:38:610
2.6815;9.347;2.8347;670.2381;-23.3;-27.0;15.0;100.96;-66.6;-45.81;62.768;19.51962;-96.91557;4341.89;0.0;25.806452;16 / 16;85.3;25.0;3.672;251138;2014-11-09 13:43:39:110
2.375;7.7381;2.6815;650.5952;-14.2;-29.0;20.3;126.15;-65.16;-41.53;63.576;19.51962;-96.91557;4341.89;0.0;25.806452;16 / 16;85.3;25.0;3.672;251638;2014-11-09 13:43:39:610
3.371;7.9679;3.1029;657.7381;-6.5;-32.5;19.8;148.85;-62.22;-33.81;62.1;19.51962;-96.91557;4341.89;0.0;25.806452;16 / 16;85.3;25.0;3.672;252138;2014-11-09 13:43:40:110
2.5666;9.6917;3.1029;621.4286;-6.6;-33.6;18.6;139.63;-67.53;-43.34;62.289;19.51962;-96.91557;4341.89;0.0;25.806452;16 / 16;85.3;25.0;3.672;252638;2014-11-09 13:43:40:610
2.6432;8.0828;2.9497;503.5715;-6.3;-33.8;18.6;146.18;-62.32;-40.33;62.714;19.51962;-96.91557;4341.89;0.0;25.806452;16 / 16;85.3;25.0;3.672;253138;2014-11-09 13:43:41:110
3.5243;7.6614;2.7198;669.0476;-2.3;-33.4;19.4;148.14;-61.06;-49.67;65.82;19.51962;-96.91557;4341.89;0.0;25.806452;16 / 16;85.3;25.0;3.672;253638;2014-11-09 13:43:41:610
2.7964;9.3853;3.4477;798.2143;-1.3;-34.2;15.6;155.07;-68.18;-39.42;64.245;19.51962;-96.91557;4341.89;0.0;25.806452;16 / 16;85.3;25.0;3.672;254138;2014-11-09 13:43:42:110
2.988;8.3127;2.873;583.9286;-4.6;-34.3;18.6;145.59;-62.73;-44.23;65.278;19.519611;-96.915565;4338.43;1.21;25.806452;16 / 16;85.3;25.0;3.672;254638;2014-11-09 13:43:42:610
3.2561;7.8913;3.2178;641.6667;-4.6;-33.7;18.7;146.14;-64.81;-41.51;65.572;19.519611;-96.915565;4338.43;1.21;25.806452;16 / 16;85.3;25.0;3.672;255139;2014-11-09 13:43:43:111
2.988;8.849;3.2178;738.6905;-6.2;-34.2;17.9;144.4;-65.48;-41.13;71.152;19.519611;-96.915565;4338.43;1.21;25.806452;16 / 16;85.3;25.0;3.672;255639;2014-11-09 13:43:43:611
2.375;7.8913;3.7158;535.119;-10.5;-34.2;18.0;138.24;-57.54;-47.14;76.005;19.519611;-96.915565;4338.43;1.21;25.806452;16 / 16;85.3;25.0;3.672;256139;2014-11-09 13:43:44:111
3.371;9.1554;4.4053;605.3572;-10.5;-32.7;19.7;139.7;-65.29;-35.54;73.915;19.519604;-96.91556;4336.32;1.42;25.806452;16 / 16;85.3;25.0;3.672;256639;2014-11-09 13:43:44:611
3.4477;8.6574;2.6432;595.2381;-12.0;-32.5;20.1;128.73;-57.12;-55.25;71.719;19.519604;-96.91556;4336.32;1.42;25.806452;16 / 16;85.3;25.0;3.672;257139;2014-11-09 13:43:45:111
3.2561;7.853;3.6009;631.5476;-20.8;-29.2;19.3;118.31;-58.28;-42.12;70.841;19.519596;-96.91556;4334.77;1.48;25.806452;16 / 16;85.3;25.0;3.672;257639;2014-11-09 13:43:45:611
1.6089;9.0022;3.1029;548.8095;-18.1;-29.7;19.5;120.43;-68.65;-37.41;70.812;19.519596;-96.91556;4334.77;1.48;25.806452;16 / 16;85.3;25.0;3.672;258139;2014-11-09 13:43:46:111
3.9073;7.6231;3.371;595.2381;-13.9;-30.4;20.8;127.76;-55.9;-49.21;70.177;19.519592;-96.91555;4333.33;0.0;25.806452;16 / 16;85.3;25.0;3.672;258639;2014-11-09 13:43:46:611
3.9456;8.3127;2.1452;591.6667;-21.1;-30.6;20.8;111.64;-60.71;-52.75;65.837;19.519592;-96.91555;4333.33;0.0;25.806452;16 / 16;85.3;25.0;3.672;259139;2014-11-09 13:43:47:111
2.5666;8.1977;3.3327;633.9286;-21.4;-28.6;19.0;118.35;-62.84;-37.6;63.14;19.519592;-96.91554;4333.2;0.0;25.806452;16 / 16;85.3;25.0;3.672;259639;2014-11-09 13:43:47:611
2.0303;9.0022;3.6009;678.5714;-18.5;-29.6;18.1;132.84;-66.19;-21.04;64.97;19.519592;-96.91554;4333.2;0.0;25.806452;16 / 16;85.3;25.0;3.672;260140;2014-11-09 13:43:48:112
4.2138;8.2744;3.0646;657.1428;-15.5;-31.4;19.1;123.0;-57.8;-53.97;70.002;19.519585;-96.91554;4331.95;2.17;25.806452;16 / 16;85.3;25.0;3.672;260640;2014-11-09 13:43:48:612
3.2561;9.0405;3.7924;743.4524;-11.9;-32.4;18.7;139.46;-67.08;-27.84;70.707;19.519585;-96.91554;4331.95;2.17;25.806452;16 / 16;85.3;25.0;3.672;261141;2014-11-09 13:43:49:113
2.6815;9.3087;4.3287;878.5714;-8.5;-33.2;18.6;141.84;-64.96;-38.31;74.91;19.519579;-96.915535;4330.98;1.41;25.806452;16 / 16;85.3;25.0;3.672;261641;2014-11-09 13:43:49:613
1.4557;8.2744;2.2601;793.4524;4.3;-33.8;18.7;161.21;-59.77;-45.0;68.938;19.519579;-96.915535;4330.98;1.41;25.806452;16 / 16;85.3;25.0;3.672;262141;2014-11-09 13:43:50:113
3.1412;8.2361;3.2561;688.6905;0.1;-34.6;20.3;151.98;-73.14;-40.91;68.629;19.519571;-96.91553;4330.12;1.82;25.806452;16 / 16;85.3;25.0;3.672;262642;2014-11-09 13:43:50:614
2.3367;9.1171;2.6432;735.7143;-5.1;-33.6;21.5;142.32;-68.71;-42.99;70.434;19.519571;-96.91553;4330.12;1.82;25.806452;16 / 16;85.3;25.0;3.672;263142;2014-11-09 13:43:51:114
0.6512;7.7764;2.2984;759.5238;2.3;-33.0;18.8;158.23;-66.92;-40.88;67.046;19.519567;-96.91553;4329.04;1.95;25.806452;17 / 17;85.3;25.0;3.672;263642;2014-11-09 13:43:51:614
0.1915;11.6071;3.984;617.2619;2.1;-33.8;20.5;170.79;-70.24;-19.12;64.912;19.519567;-96.91553;4329.04;1.95;25.806452;17 / 17;85.3;25.0;3.672;264143;2014-11-09 13:43:52:115
2.49;9.5385;2.988;636.9048;1.2;-32.8;22.1;164.6;-68.57;-25.38;67.144;19.519567;-96.91553;4329.04;1.95;25.806452;16 / 17;85.3;25.0;3.672;264644;2014-11-09 13:43:52:616
1.8387;9.9599;3.9073;713.6905;0.2;-32.4;21.1;171.84;-72.73;-11.48;65.575;19.519567;-96.91553;4329.04;1.95;25.806452;16 / 17;85.3;25.0;3.672;265144;2014-11-09 13:43:53:116
1.2258;8.4659;2.5666;712.5;-2.5;-32.4;21.9;151.16;-66.01;-38.35;64.34;19.519554;-96.91553;4327.14;2.37;25.806452;16 / 17;85.3;25.0;3.672;265644;2014-11-09 13:43:53:616
1.494;8.5425;2.0303;650.5952;-1.9;-32.2;21.2;158.32;-69.12;-26.57;63.161;19.519554;-96.91553;4327.14;2.37;25.806452;16 / 17;85.3;25.0;3.672;266144;2014-11-09 13:43:54:116
2.988;8.849;2.6049;644.0476;-1.5;-33.0;20.3;147.61;-65.87;-48.92;62.869;19.519554;-96.91553;4327.14;2.37;25.806452;16 / 16;85.3;25.0;3.672;266644;2014-11-09 13:43:54:616
1.0343;9.3087;2.7198;632.1428;-2.8;-33.2;20.5;152.96;-66.37;-33.69;62.697;19.519554;-96.91553;4327.14;2.37;25.806452;16 / 16;85.3;25.0;3.672;267145;2014-11-09 13:43:55:117
2.0303;7.4316;2.873;394.0476;-1.5;-33.8;19.9;156.77;-64.67;-35.25;63.069;19.519548;-96.91553;4325.77;1.29;19.35484;16 / 16;85.3;25.0;3.672;267645;2014-11-09 13:43:55:617
2.6815;8.8107;3.1412;514.2857;-2.9;-34.8;17.9;153.44;-63.9;-37.34;68.607;19.519548;-96.91553;4325.77;1.29;19.35484;16 / 16;85.3;25.0;3.672;268146;2014-11-09 13:43:56:118
1.3791;8.3893;2.3367;542.2619;-2.6;-34.6;20.8;153.45;-72.08;-30.55;67.701;19.519548;-96.91553;4325.77;1.29;19.35484;16 / 16;85.3;25.0;3.672;268646;2014-11-09 13:43:56:618
1.7621;8.1594;2.1452;382.1429;-0.1;-34.2;21.0;159.46;-63.17;-33.54;68.414;19.519548;-96.91553;4325.77;1.29;19.35484;16 / 16;85.3;25.0;3.672;269146;2014-11-09 13:43:57:118
3.1029;9.2703;3.5243;436.9048;-3.0;-34.4;20.4;150.18;-63.14;-41.36;68.713;19.519548;-96.91553;4325.77;1.29;19.35484;16 / 16;85.3;25.0;3.672;269646;2014-11-09 13:43:57:618
2.375;8.351;3.2944;505.3572;-6.4;-33.6;20.8;149.37;-62.39;-33.97;67.676;19.519548;-96.91553;4325.77;1.29;19.35484;16 / 16;85.3;25.0;3.672;270147;2014-11-09 13:43:58:119
3.5626;8.1977;3.7924;369.0476;-6.3;-33.4;18.6;147.57;-65.7;-34.56;71.766;19.51954;-96.91553;4323.28;1.48;38.709675;16 / 16;85.3;25.0;3.672;270647;2014-11-09 13:43:58:619
2.9113;8.734;2.9497;339.2857;-5.7;-34.0;18.4;139.95;-64.47;-49.9;72.97;19.51954;-96.91553;4323.28;1.48;38.709675;16 / 16;85.3;25.0;3.672;271147;2014-11-09 13:43:59:119
2.988;7.6998;3.9456;355.3572;-6.5;-34.0;18.2;141.82;-57.76;-53.94;73.585;19.51954;-96.91553;4323.28;1.48;38.709675;16 / 16;85.3;25.0;3.672;271647;2014-11-09 13:43:59:619
1.6855;8.5425;3.3327;314.881;-4.7;-33.8;17.8;147.93;-64.79;-39.01;72.366;19.51954;-96.91553;4323.28;1.48;38.709675;16 / 16;85.3;25.0;3.672;272147;2014-11-09 13:44:00:119
3.2561;7.1635;3.3327;65.1818;-2.6;-34.6;17.5;153.02;-56.6;-43.21;71.403;19.51954;-96.91553;4323.28;1.48;38.709675;16 / 16;87.1;24.0;3.651;272648;2014-11-09 13:44:00:620
3.5626;8.9256;3.7924;134.6591;-11.3;-34.8;16.2;136.53;-64.11;-40.54;72.033;19.51954;-96.91553;4323.28;1.48;38.709675;16 / 16;87.1;24.0;3.651;273148;2014-11-09 13:44:01:120
3.5243;7.5082;3.4477;453.5715;-26.1;-26.7;17.8;113.86;-55.33;-37.77;69.569;19.519531;-96.91553;4322.48;1.43;38.709675;17 / 17;87.1;24.0;3.651;273648;2014-11-09 13:44:01:620
3.6775;7.5848;3.5626;443.4524;-31.0;-22.3;15.3;88.62;-56.15;-52.84;71.522;19.519531;-96.91553;4322.48;1.43;38.709675;17 / 17;87.1;24.0;3.651;274148;2014-11-09 13:44:02:120
5.1715;7.6231;3.0646;415.4762;-36.4;-14.2;14.0;71.68;-55.93;-56.19;72.461;19.519526;-96.91553;4321.95;1.55;25.806452;17 / 17;87.1;24.0;3.651;274648;2014-11-09 13:44:02:620
4.6352;7.7381;2.1835;52.6364;-39.4;-10.7;2.9;39.45;-53.57;-67.47;73.059;19.519526;-96.91553;4321.95;1.55;25.806452;17 / 17;87.1;24.0;3.651;275149;2014-11-09 13:44:03:121
4.7118;8.0828;2.1069;45.5455;-39.5;-10.4;0.7;37.4;-58.64;-63.23;73.269;19.51952;-96.91553;4321.95;1.22;51.612904;17 / 17;87.1;24.0;3.651;275649;2014-11-09 13:44:03:621
4.5586;8.0062;2.5283;120.3409;-39.3;-9.8;-8.9;13.95;-57.3;-67.08;73.57;19.51952;-96.91553;4321.95;1.22;51.612904;17 / 17;87.1;24.0;3.651;276149;2014-11-09 13:44:04:121
4.8267;8.2744;2.7198;66.8182;-27.8;-8.0;-25.7;341.38;-56.19;-60.6;72.707;19.519512;-96.91553;4322.27;1.19;38.709675;17 / 17;87.1;24.0;3.651;276649;2014-11-09 13:44:04:621
4.6735;7.5848;1.5706;69.5455;-25.7;-8.9;-27.0;329.87;-57.7;-66.22;71.971;19.519512;-96.91553;4322.27;1.19;38.709675;17 / 17;87.1;24.0;3.651;277149;2014-11-09 13:44:05:121
4.6735;8.1594;1.5706;316.6667;-13.2;-12.0;-33.2;296.17;-58.86;-71.42;71.382;19.519506;-96.91553;4322.56;1.58;19.35484;17 / 17;87.1;24.0;3.651;277649;2014-11-09 13:44:05:621
4.7884;7.853;3.2944;301.1905;-10.4;-13.3;-33.2;304.82;-57.99;-57.0;73.098;19.519506;-96.91553;4322.56;1.58;19.35484;17 / 17;87.1;24.0;3.651;278150;2014-11-09 13:44:06:122
3.5626;8.5808;2.5666;136.0227;-18.8;-10.8;-32.9;328.81;-62.9;-54.23;73.246;19.519506;-96.91553;4322.56;1.58;19.35484;17 / 17;87.1;24.0;3.651;278650;2014-11-09 13:44:06:622
5.0566;7.1635;2.2218;133.2955;-19.8;-11.5;-31.3;319.54;-51.97;-59.25;72.244;19.519506;-96.91553;4322.56;1.58;19.35484;17 / 17;87.1;24.0;3.651;279150;2014-11-09 13:44:07:122
4.4053;8.8107;2.49;126.1364;-18.5;-10.0;-31.8;316.05;-60.01;-63.43;66.697;19.519506;-96.91553;4322.56;1.58;19.35484;17 / 17;87.1;24.0;3.651;279650;2014-11-09 13:44:07:622
3.5243;7.4316;3.486;134.6591;-17.7;-10.0;-32.7;330.71;-57.48;-49.76;66.827;19.519506;-96.91553;4322.56;1.58;19.35484;17 / 17;87.1;24.0;3.651;280150;2014-11-09 13:44:08:122
5.5545;6.5505;2.0303;72.2727;-25.8;-7.6;-29.8;333.98;-52.18;-58.77;68.64;19.519506;-96.91553;4322.56;1.58;19.35484;17 / 17;87.1;24.0;3.651;280650;2014-11-09 13:44:08:622
2.8347;8.3127;2.6432;128.5227;-29.5;-6.4;-25.9;353.13;-63.09;-53.77;67.255;19.519506;-96.91553;4322.56;1.58;19.35484;17 / 17;87.1;24.0;3.651;281150;2014-11-09 13:44:09:122
3.7924;7.5465;3.7924;119.6591;-15.1;-12.0;-34.1;318.48;-52.72;-50.83;65.227;19.519499;-96.91553;4323.13;1.91;38.709675;17 / 17;87.1;24.0;3.651;281650;2014-11-09 13:44:09:622
4.0989;9.1171;4.1372;124.0909;-11.6;-11.9;-35.4;317.55;-59.47;-50.37;72.239;19.519499;-96.91553;4323.13;1.91;38.709675;17 / 17;87.1;24.0;3.651;282150;2014-11-09 13:44:10:122
3.5626;8.5042;3.3327;121.3636;-12.9;-12.7;-34.9;324.07;-63.91;-48.09;71.094;19.519499;-96.91553;4323.13;1.91;38.709675;17 / 17;87.1;24.0;3.651;282650;2014-11-09 13:44:10:622
4.1372;7.9296;2.7198;118.2955;-3.0;-14.4;-35.1;290.29;-54.04;-55.11;66.916;19.519499;-96.91553;4323.13;1.91;38.709675;17 / 17;87.1;24.0;3.651;283151;2014-11-09 13:44:11:123
3.9073;7.853;3.0646;115.5682;-3.1;-16.1;-35.6;295.55;-58.99;-52.17;65.008;19.519505;-96.915535;4323.11;0.0;25.806452;17 / 17;87.1;24.0;3.651;283651;2014-11-09 13:44:11:623
4.0223;8.1211;2.8347;119.6591;-11.2;-16.0;-35.6;302.94;-57.13;-56.78;61.023;19.519505;-96.915535;4323.11;0.0;25.806452;17 / 17;87.1;24.0;3.651;284151;2014-11-09 13:44:12:123
4.4819;7.8913;2.6049;116.9318;-20.5;-12.3;-33.1;326.42;-58.74;-55.45;70.548;19.519512;-96.915535;4323.06;0.0;25.806452;17 / 17;87.1;24.0;3.651;284651;2014-11-09 13:44:12:623
4.0223;8.3127;2.6815;313.6905;-28.0;-10.5;-27.4;342.36;-57.28;-58.57;59.95;19.519512;-96.915535;4323.06;0.0;25.806452;17 / 17;87.1;24.0;3.651;285152;2014-11-09 13:44:13:124
3.3327;9.1171;3.3327;355.3572;-33.9;-8.2;-18.4;21.32;-62.66;-45.0;59.853;19.519516;-96.91554;4322.65;1.35;25.806452;17 / 17;87.1;24.0;3.651;285652;2014-11-09 13:44:13:624
3.7924;8.3893;3.8307;389.2857;-25.5;-11.9;-27.8;342.11;-62.45;-55.1;61.881;19.519516;-96.91554;4322.65;1.35;25.806452;17 / 17;87.1;24.0;3.651;286152;2014-11-09 13:44:14:124
2.1835;8.6191;2.2218;134.6591;-35.4;-12.8;1.5;56.71;-70.13;-44.5;63.039;19.519522;-96.91554;4322.61;0.0;25.806452;17 / 17;87.1;24.0;3.651;286652;2014-11-09 13:44:14:624
3.6775;7.3933;2.375;464.881;-33.1;-19.3;5.0;64.9;-46.94;-67.88;64.646;19.519522;-96.91554;4322.61;0.0;25.806452;17 / 17;87.1;24.0;3.651;287152;2014-11-09 13:44:15:124
5.0566;7.4316;3.1412;436.3095;-30.5;-20.9;12.9;87.0;-51.3;-58.15;59.926;19.519522;-96.91554;4322.61;0.0;25.806452;17 / 17;87.1;24.0;3.651;287653;2014-11-09 13:44:15:625
4.0989;8.5425;2.8347;124.7727;-26.3;-24.6;16.0;97.46;-55.62;-56.19;59.014;19.519522;-96.91554;4322.61;0.0;25.806452;17 / 17;87.1;24.0;3.651;288153;2014-11-09 13:44:16:125
5.4396;7.5082;0.6895;121.0227;-24.4;-25.0;21.3;101.81;-45.58;-72.38;63.05;19.51953;-96.91554;4322.37;1.11;19.35484;17 / 17;87.1;24.0;3.651;288654;2014-11-09 13:44:16:626
4.9033;7.0868;1.1109;60.2727;-26.3;-19.2;23.9;85.48;-49.48;-75.81;64.338;19.51953;-96.91554;4322.37;1.11;19.35484;17 / 17;87.1;24.0;3.651;289154;2014-11-09 13:44:17:126
2.7198;8.6957;2.6049;122.7273;-29.2;-20.1;18.4;64.85;-72.21;-67.78;75.087;19.51953;-96.91554;4322.37;1.11;19.35484;17 / 17;87.1;24.0;3.651;289655;2014-11-09 13:44:17:627
4.367;7.2784;1.8771;319.6429;-28.9;-21.0;17.8;92.47;-43.73;-68.2;71.609;19.51953;-96.91554;4322.37;1.11;19.35484;17 / 17;87.1;24.0;3.651;290155;2014-11-09 13:44:18:127
6.0142;8.5042;3.984;357.7381;-26.9;-22.2;16.9;94.07;-58.33;-52.5;64.347;19.51953;-96.91554;4322.37;1.11;19.35484;17 / 17;87.1;24.0;3.651;290655;2014-11-09 13:44:18:627
2.9497;8.849;2.988;311.3095;-23.7;-24.6;15.8;100.3;-61.14;-49.86;62.107;19.51953;-96.91554;4322.37;1.11;19.35484;17 / 17;87.1;24.0;3.651;291155;2014-11-09 13:44:19:127
2.873;8.4276;2.6815;319.0476;-15.5;-30.0;17.1;117.1;-63.06;-54.4;60.801;19.519535;-96.91554;4322.24;0.0;19.35484;17 / 17;87.1;24.0;3.651;291656;2014-11-09 13:44:19:628
4.2138;7.3933;3.4093;324.4048;-17.7;-29.5;17.2;114.02;-57.23;-57.22;59.411;19.519535;-96.91554;4322.24;0.0;19.35484;17 / 17;87.1;24.0;3.651;292156;2014-11-09 13:44:20:128
3.9456;8.351;2.9497;366.6667;-12.3;-29.5;16.9;127.72;-56.56;-54.42;65.185;19.519535;-96.91554;4322.24;0.0;19.35484;17 / 17;87.1;24.0;3.651;292657;2014-11-09 13:44:20:629
2.7964;8.3127;1.7238;355.3572;0.6;-33.5;16.7;149.59;-60.45;-60.38;63.622;19.519535;-96.91554;4322.24;0.0;19.35484;17 / 17;87.1;24.0;3.651;293157;2014-11-09 13:44:21:129
3.3327;9.4236;1.8004;325.0;1.1;-34.7;15.5;145.25;-69.62;-62.85;65.093;19.51954;-96.915535;4322.3;0.0;38.709675;17 / 17;87.1;24.0;3.651;293657;2014-11-09 13:44:21:629
2.3367;8.4659;2.6815;348.8095;1.4;-34.9;18.9;156.22;-57.78;-47.34;59.729;19.51954;-96.915535;4322.3;0.0;38.709675;17 / 17;87.1;24.0;3.651;294157;2014-11-09 13:44:22:129
3.869;8.6574;3.1412;374.4048;1.4;-34.1;17.1;157.41;-68.49;-41.03;62.245;19.519539;-96.91553;4322.54;1.35;38.709675;17 / 17;87.1;24.0;3.651;294657;2014-11-09 13:44:22:629
1.9537;9.8833;3.2561;391.6667;1.0;-34.1;16.6;153.58;-70.36;-46.02;59.681;19.519539;-96.91553;4322.54;1.35;38.709675;17 / 17;87.1;24.0;3.651;295157;2014-11-09 13:44:23:129
2.988;7.4699;2.9497;143.1818;1.3;-33.9;16.4;158.47;-60.66;-45.37;61.676;19.519535;-96.91552;4322.67;1.65;25.806452;17 / 17;87.1;24.0;3.651;295658;2014-11-09 13:44:23:630
1.0726;9.1554;3.6775;144.8864;15.4;-33.7;-8.2;219.94;-62.11;-42.54;60.061;19.519535;-96.91552;4322.67;1.65;25.806452;17 / 17;87.1;24.0;3.651;296158;2014-11-09 13:44:24:130
1.2641;9.9216;4.0606;126.8182;18.6;-32.3;-1.8;229.43;-66.8;-17.29;60.786;19.519535;-96.91552;4322.67;1.65;25.806452;17 / 17;87.1;24.0;3.651;296659;2014-11-09 13:44:24:631
-0.1532;9.0022;2.5666;70.6364;15.7;-31.4;16.5;208.67;-70.83;-3.72;61.602;19.519535;-96.91552;4322.67;1.65;25.806452;17 / 17;87.1;24.0;3.651;297159;2014-11-09 13:44:25:131
0.2298;9.0405;1.9154;72.2727;0.6;-32.0;21.7;174.06;-75.67;-10.49;60.982;19.519533;-96.91552;4322.7;0.0;38.709675;17 / 17;87.1;24.0;3.651;297659;2014-11-09 13:44:25:631
0.3448;9.1937;2.0686;48.8182;0.1;-32.2;20.7;171.74;-78.4;-10.62;60.425;19.519533;-96.91552;4322.7;0.0;38.709675;17 / 17;87.1;24.0;3.651;298159;2014-11-09 13:44:26:131
0.0383;9.0788;2.4134;50.4545;0.0;-32.4;20.4;176.19;-74.78;-5.27;60.162;19.519533;-96.91552;4322.7;0.0;38.709675;17 / 17;87.1;24.0;3.651;298659;2014-11-09 13:44:26:631
0.0383;8.8873;2.49;55.9091;0.6;-32.8;19.6;178.79;-75.13;-4.54;70.908;19.519533;-96.91552;4322.7;0.0;38.709675;17 / 17;87.1;24.0;3.651;299159;2014-11-09 13:44:27:131
0.0383;9.2703;2.7581;43.9091;1.0;-33.4;18.8;175.0;-75.18;-10.06;61.791;19.519533;-96.91552;4322.7;0.0;38.709675;17 / 17;87.1;24.0;3.651;299659;2014-11-09 13:44:27:631
0.3448;8.351;2.5283;115.2273;1.4;-33.8;18.4;178.64;-74.06;-5.19;63.934;19.519533;-96.91552;4322.7;0.0;38.709675;17 / 17;87.1;24.0;3.651;300160;2014-11-09 13:44:28:132
-1.2258;9.8067;1.6472;74.4545;7.7;-33.4;18.2;229.44;-75.34;43.7;68.978;19.519533;-96.91552;4322.7;0.0;38.709675;17 / 17;87.1;24.0;3.651;300660;2014-11-09 13:44:28:632
-2.2601;9.7683;2.0686;287.5;-0.6;-33.2;18.4;194.4;-73.92;24.3;72.243;19.519533;-96.91552;4322.7;0.0;38.709675;17 / 17;87.1;24.0;3.651;301160;2014-11-09 13:44:29:132
0.0383;8.5808;0.4597;115.2273;-16.6;-30.3;18.9;135.9;-86.92;-4.76;68.233;19.519533;-96.91552;4322.7;0.0;38.709675;17 / 17;87.1;24.0;3.651;301660;2014-11-09 13:44:29:632
0.1532;9.3087;-0.3448;67.9091;-17.4;-28.1;19.4;302.65;-84.99;169.22;63.178;19.519533;-96.91552;4322.7;0.0;38.709675;17 / 17;87.1;24.0;3.651;302161;2014-11-09 13:44:30:133
0.0766;9.4619;0.0;115.5682;-17.8;-27.7;20.0;48.37;-89.54;-90.0;60.761;19.519531;-96.91551;4322.73;0.0;25.806452;17 / 17;87.1;24.0;3.651;302663;2014-11-09 13:44:30:635
-0.6512;9.5002;0.2298;119.6591;-15.2;-28.7;19.8;211.25;-85.84;70.56;61.045;19.519531;-96.91551;4322.73;0.0;25.806452;17 / 17;87.1;24.0;3.651;303163;2014-11-09 13:44:31:135
-0.5363;9.4236;0.6512;129.2046;-14.8;-29.7;19.2;184.31;-85.23;43.02;60.631;19.519531;-96.91551;4322.73;0.0;25.806452;16 / 16;87.1;24.0;3.651;303663;2014-11-09 13:44:31:635
-0.6895;9.3087;0.8811;120.0;-14.0;-30.7;18.4;180.15;-83.15;38.05;61.395;19.519531;-96.91551;4322.73;0.0;25.806452;16 / 16;87.1;24.0;3.651;304163;2014-11-09 13:44:32:135
-0.498;9.3087;0.8811;65.1818;-13.8;-30.9;18.0;181.1;-85.17;39.09;61.169;19.519524;-96.91551;4322.74;0.0;38.709675;16 / 16;87.1;24.0;3.651;304663;2014-11-09 13:44:32:635
-0.6895;9.5002;1.1109;72.2727;-13.4;-31.1;18.0;177.72;-82.89;33.18;61.272;19.519524;-96.91551;4322.74;0.0;38.709675;16 / 16;87.1;24.0;3.651;305164;2014-11-09 13:44:33:136
-0.2682;9.347;0.6895;70.6364;-13.0;-31.3;18.8;176.88;-85.88;30.96;65.111;19.519518;-96.915504;4322.73;0.0;38.709675;16 / 16;87.1;24.0;3.651;305665;2014-11-09 13:44:33:637
-0.5363;9.4236;0.6129;118.2955;-13.2;-30.9;19.0;186.12;-85.06;41.19;62.977;19.519518;-96.915504;4322.73;0.0;38.709675;16 / 16;87.1;24.0;3.651;306165;2014-11-09 13:44:34:137
-0.5363;9.232;0.7661;311.3095;-13.2;-30.9;18.8;184.04;-83.78;38.99;62.963;19.519518;-96.915504;4322.73;0.0;38.709675;17 / 17;87.1;24.0;3.651;306666;2014-11-09 13:44:34:638
-0.2682;9.4236;0.996;305.9524;-13.0;-30.9;18.8;163.04;-83.75;15.07;67.34;19.519518;-96.915504;4322.73;0.0;38.709675;17 / 17;87.1;24.0;3.651;307166;2014-11-09 13:44:35:138
-0.5746;9.4619;0.8045;307.1429;-13.0;-30.9;19.0;184.83;-84.54;39.81;68.935;19.519508;-96.915504;4322.62;0.0;51.612904;17 / 17;87.1;24.0;3.651;307666;2014-11-09 13:44:35:638
-0.6512;9.3853;0.7278;307.1429;-13.0;-30.9;19.0;185.06;-84.21;40.1;60.124;19.519508;-96.915504;4322.62;0.0;51.612904;17 / 17;87.1;24.0;3.651;308166;2014-11-09 13:44:36:138
-0.6129;9.5002;0.6895;307.1429;-13.0;-30.9;19.2;183.77;-84.03;38.66;60.238;19.519508;-96.915504;4322.62;0.0;51.612904;17 / 17;87.1;24.0;3.651;308666;2014-11-09 13:44:36:638
-0.6129;9.4619;0.7278;308.9286;-13.2;-30.9;19.2;185.06;-84.26;40.1;59.616;19.519508;-96.915504;4322.62;0.0;51.612904;17 / 17;87.1;24.0;3.651;309167;2014-11-09 13:44:37:139
-0.6129;9.4236;0.8045;308.3333;-13.0;-30.9;19.0;182.57;-83.87;37.3;71.751;19.5195;-96.915504;4322.47;0.0;25.806452;17 / 17;87.1;24.0;3.651;309667;2014-11-09 13:44:37:639
-0.6512;9.1554;0.7661;307.1429;-12.6;-30.9;19.0;185.25;-83.73;40.36;61.934;19.5195;-96.915504;4322.47;0.0;25.806452;17 / 17;87.1;24.0;3.651;310167;2014-11-09 13:44:38:139
-2.2984;9.8067;2.2984;335.1191;-1.8;-31.5;18.9;206.75;-71.66;45.0;60.152;19.519491;-96.915504;4321.73;1.73;25.806452;17 / 17;87.1;24.0;3.651;310668;2014-11-09 13:44:38:640
-2.3367;9.0405;1.7238;311.3095;9.5;-32.1;18.6;238.78;-72.19;53.58;66.424;19.519491;-96.915504;4321.73;1.73;25.806452;17 / 17;87.1;24.0;3.651;311168;2014-11-09 13:44:39:140
-3.1412;8.8107;2.9497;121.3636;9.0;-32.5;18.4;225.07;-63.94;46.8;60.226;19.519491;-96.915504;4321.73;1.73;25.806452;16 / 16;87.1;24.0;3.651;311668;2014-11-09 13:44:39:640
-4.0223;8.2361;2.6049;410.1191;9.2;-33.8;16.9;225.92;-59.81;57.07;60.744;19.519491;-96.915504;4321.73;1.73;25.806452;16 / 16;87.1;24.0;3.651;312169;2014-11-09 13:44:40:141
-3.8307;8.2361;2.8347;363.6905;8.8;-33.8;16.5;225.65;-61.47;54.01;61.537;19.519487;-96.9155;4321.62;0.0;25.806452;16 / 16;87.1;24.0;3.651;312669;2014-11-09 13:44:40:641
-3.486;8.4276;2.6049;397.0238;9.2;-33.8;16.5;226.18;-62.69;53.23;59.795;19.519487;-96.9155;4321.62;0.0;25.806452;16 / 16;87.1;24.0;3.651;313169;2014-11-09 13:44:41:141
-3.371;8.0828;1.494;321.4286;17.3;-29.2;20.1;245.8;-55.22;63.26;60.358;19.519487;-96.9155;4321.62;0.0;25.806452;16 / 16;87.1;24.0;3.651;313669;2014-11-09 13:44:41:641
-0.0766;9.3853;1.3408;308.9286;-12.4;-30.5;20.3;156.3;-81.86;3.27;70.683;19.519487;-96.9155;4321.62;0.0;25.806452;16 / 16;87.1;24.0;3.651;314169;2014-11-09 13:44:42:141
0.6129;9.3853;0.8428;120.3409;-15.7;-30.3;19.0;112.59;-83.67;-34.29;70.928;19.519484;-96.91549;4321.51;0.0;51.612904;16 / 16;87.1;24.0;3.651;314669;2014-11-09 13:44:42:641
0.0;9.5768;0.498;131.5909;-15.6;-29.1;18.6;142.0;-87.02;0.0;66.858;19.519484;-96.91549;4321.51;0.0;51.612904;16 / 16;87.1;24.0;3.651;315169;2014-11-09 13:44:43:141
-0.1915;9.5385;0.7278;313.6905;-14.8;-29.1;19.2;171.59;-85.1;29.05;60.45;19.519484;-96.91549;4321.51;0.0;51.612904;16 / 16;87.1;24.0;3.651;315669;2014-11-09 13:44:43:641
-0.3065;9.4619;0.8428;322.0238;-13.2;-29.7;20.0;168.29;-84.59;19.98;66.831;19.519484;-96.91549;4321.51;0.0;51.612904;16 / 16;87.1;24.0;3.651;316169;2014-11-09 13:44:44:141
-0.3448;9.4236;0.5363;308.3333;-12.8;-29.9;20.2;180.61;-85.76;33.69;60.596;19.519485;-96.91549;4321.4;0.0;38.709675;16 / 16;87.1;24.0;3.651;316669;2014-11-09 13:44:44:641
-0.2682;9.4236;0.5746;308.3333;-12.8;-29.7;20.6;163.83;-85.27;14.04;59.034;19.519485;-96.91549;4321.4;0.0;38.709675;16 / 16;87.1;24.0;3.651;317169;2014-11-09 13:44:45:141
-0.2298;9.4236;0.6129;308.9286;-13.2;-29.5;20.6;175.16;-86.34;26.57;60.909;19.519485;-96.91549;4321.4;0.0;38.709675;16 / 16;87.1;24.0;3.651;317669;2014-11-09 13:44:45:641
-0.1532;9.0405;0.8045;309.5238;-13.2;-29.7;20.6;161.0;-84.82;10.78;72.46;19.519485;-96.91549;4321.4;0.0;38.709675;16 / 16;87.1;24.0;3.651;318169;2014-11-09 13:44:46:141
1.1109;7.6998;1.5706;147.9546;-7.5;-29.5;24.6;134.39;-77.33;-39.47;60.761;19.519485;-96.91549;4321.4;0.0;38.709675;16 / 16;87.1;24.0;3.651;318669;2014-11-09 13:44:46:641
5.2098;8.9256;1.5323;31.9091;3.6;-34.7;9.5;160.48;-58.68;-73.61;68.976;19.519485;-96.91549;4321.4;0.0;38.709675;16 / 16;87.1;24.0;3.651;319169;2014-11-09 13:44:47:141
4.0223;8.0445;1.7238;52.6364;10.4;-35.1;-1.2;191.24;-61.45;-66.8;60.72;19.519491;-96.91548;4321.27;0.0;25.806452;16 / 16;87.1;24.0;3.651;319669;2014-11-09 13:44:47:641
5.2481;8.1977;0.996;7.3684;-0.9;-26.5;-28.3;251.77;-56.91;-79.25;67.262;19.519491;-96.91548;4321.27;0.0;25.806452;16 / 16;87.1;24.0;3.651;320169;2014-11-09 13:44:48:141
6.5505;7.0868;2.2218;38.4545;-7.8;-20.6;-31.2;265.47;-45.69;-71.26;73.368;19.519491;-96.91548;4321.27;0.0;25.806452;16 / 16;87.1;24.0;3.651;320669;2014-11-09 13:44:48:641
3.6009;9.5768;3.4477;132.9546;-12.1;-11.8;-34.4;324.75;-62.5;-46.25;69.654;19.519491;-96.91548;4321.27;0.0;25.806452;16 / 16;87.1;24.0;3.651;321169;2014-11-09 13:44:49:141
2.5283;7.8913;2.3367;57.5455;-14.4;-20.4;-29.7;319.88;-60.11;-49.35;75.472;19.519491;-96.91548;4321.27;0.0;25.806452;16 / 16;87.1;24.0;3.651;321669;2014-11-09 13:44:49:641
4.5969;7.8913;2.5283;55.9091;-11.0;-16.3;-33.7;297.62;-56.38;-61.19;74.7;19.519491;-96.91548;4321.27;0.0;25.806452;16 / 16;87.1;24.0;3.651;322170;2014-11-09 13:44:50:142
5.3247;9.4236;2.4517;39.0;-19.9;-13.5;-31.5;316.34;-66.66;-68.3;65.381;19.519491;-96.91548;4321.27;0.0;25.806452;16 / 16;87.1;24.0;3.651;322670;2014-11-09 13:44:50:642
3.7541;7.5848;1.8771;34.0909;-3.8;-22.9;-30.5;278.48;-61.04;-63.44;65.25;19.519491;-96.91548;4321.27;0.0;25.806452;16 / 16;87.1;24.0;3.651;323170;2014-11-09 13:44:51:142
4.2904;7.5848;0.7661;57.5455;-2.4;-23.5;-30.5;261.75;-50.18;-65.7;68.54;19.519491;-96.91548;4321.27;0.0;25.806452;16 / 16;87.1;24.0;3.651;323670;2014-11-09 13:44:51:642
4.8267;8.5425;1.3024;124.0909;-1.2;-26.4;-30.3;259.05;-59.66;-74.9;67.704;19.519491;-96.91548;4321.27;0.0;25.806452;16 / 16;87.1;24.0;3.651;324170;2014-11-09 13:44:52:142
6.6272;6.2058;1.8004;116.5909;-0.8;-32.5;-23.6;234.2;-45.65;-71.17;62.509;19.519491;-96.91548;4321.27;0.0;25.806452;16 / 16;87.1;24.0;3.651;324670;2014-11-09 13:44:52:642
6.4739;6.6655;1.6089;29.7273;-4.6;-30.3;-25.6;240.92;-44.98;-76.04;62.413;19.519491;-96.91548;4321.27;0.0;25.806452;16 / 16;87.1;24.0;3.651;325170;2014-11-09 13:44:53:142
6.9336;6.7804;1.494;8.9474;-4.5;-29.7;-26.5;236.8;-41.75;-77.57;62.969;19.519491;-96.91548;4321.27;0.0;25.806452;16 / 16;87.1;24.0;3.651;325670;2014-11-09 13:44:53:642
6.2058;6.857;1.494;43.9091;-4.1;-29.7;-26.9;242.87;-47.05;-76.46;62.541;19.519491;-96.91548;4321.27;0.0;25.806452;16 / 16;87.1;24.0;3.651;326170;2014-11-09 13:44:54:142
6.359;6.857;1.4174;31.9091;-2.9;-30.8;-26.1;239.87;-49.05;-79.53;60.746;19.519497;-96.91548;4320.16;0.0;19.35484;16 / 16;87.1;24.0;3.651;326670;2014-11-09 13:44:54:642
6.4356;6.6655;1.4174;14.8148;-2.9;-31.6;-25.0;233.79;-42.99;-75.6;61.565;19.519497;-96.91548;4320.16;0.0;19.35484;16 / 16;87.1;24.0;3.651;327170;2014-11-09 13:44:55:142
6.7421;6.3207;1.2641;62.4545;-2.9;-32.8;-22.6;230.04;-44.26;-78.5;61.421;19.519497;-96.91548;4320.16;0.0;19.35484;16 / 16;87.1;24.0;3.651;327671;2014-11-09 13:44:55:643
7.0868;6.7804;2.375;51.5455;0.3;-34.3;-21.9;225.52;-42.21;-71.47;69.096;19.519497;-96.91548;4320.16;0.0;19.35484;16 / 16;87.1;24.0;3.651;328172;2014-11-09 13:44:56:144
7.0102;5.9759;3.2178;33.0;0.9;-34.1;-23.2;226.46;-40.34;-65.04;75.958;19.519505;-96.91549;4319.73;0.0;25.806452;16 / 16;87.1;24.0;3.651;328672;2014-11-09 13:44:56:644
7.5465;5.8227;2.873;13.8889;0.2;-36.7;-17.4;210.97;-35.79;-69.16;73.837;19.519505;-96.91549;4319.73;0.0;25.806452;16 / 16;87.1;24.0;3.651;329172;2014-11-09 13:44:57:144
7.5465;4.6352;4.0989;61.9091;-1.9;-37.3;-9.0;193.92;-27.72;-66.99;61.64;19.519505;-96.91549;4319.73;0.0;25.806452;16 / 16;87.1;24.0;3.651;329672;2014-11-09 13:44:57:644
7.2784;4.4053;4.4053;53.7273;-7.0;-38.2;-2.6;178.0;-27.38;-58.82;68.825;19.519505;-96.91549;4319.73;0.0;25.806452;16 / 16;87.1;24.0;3.651;330172;2014-11-09 13:44:58:144
7.2784;4.6735;3.984;51.0;-6.7;-38.2;-2.2;176.9;-29.39;-61.31;67.737;19.519505;-96.91549;4319.73;0.0;25.806452;16 / 16;87.1;24.0;3.651;330672;2014-11-09 13:44:58:644
7.3167;4.6352;4.0223;46.6364;-6.5;-38.4;-1.6;177.84;-29.04;-61.2;74.264;19.519505;-96.91549;4319.73;0.0;25.806452;16 / 16;87.1;24.0;3.651;331172;2014-11-09 13:44:59:144
7.4316;5.1715;3.9456;4.7368;-4.4;-38.6;-9.8;193.53;-31.58;-62.03;73.624;19.519506;-96.91549;4319.63;0.0;19.35484;16 / 16;87.1;24.0;3.651;331672;2014-11-09 13:44:59:644
6.5122;5.1332;3.2178;0.0;-2.9;-38.2;-12.1;199.65;-35.25;-63.71;67.671;19.519506;-96.91549;4319.63;0.0;19.35484;16 / 16;87.1;24.0;3.651;332172;2014-11-09 13:45:00:144
7.6614;4.9799;2.2984;0.0;-2.2;-38.2;-12.2;200.23;-32.61;-70.2;71.783;19.519506;-96.91549;4319.63;0.0;19.35484;16 / 16;87.1;24.0;3.651;332673;2014-11-09 13:45:00:645
7.0102;5.9759;1.9537;0.0;-6.2;-32.8;-25.6;233.4;-39.39;-74.43;65.737;19.519506;-96.91549;4319.63;0.0;19.35484;16 / 16;87.1;24.0;3.651;333173;2014-11-09 13:45:01:145
7.0102;6.4739;2.1835;8.9474;-7.4;-27.0;-32.6;251.47;-39.91;-71.57;67.184;19.519505;-96.9155;4319.55;0.0;19.35484;16 / 16;87.1;24.0;3.651;333673;2014-11-09 13:45:01:645
7.8913;5.3247;3.2561;31.3636;-3.3;-15.5;-41.5;265.36;-31.95;-67.58;63.615;19.519505;-96.9155;4319.55;0.0;19.35484;16 / 16;87.1;24.0;3.651;334174;2014-11-09 13:45:02:146
6.2441;7.6231;2.4517;63.5455;-13.9;-13.7;-41.3;288.5;-44.5;-66.07;63.565;19.519505;-96.9155;4319.55;0.0;19.35484;16 / 16;87.1;24.0;3.651;334674;2014-11-09 13:45:02:646
5.2864;6.5122;1.8387;51.0;-12.2;-22.5;-30.9;274.47;-49.32;-70.82;64.136;19.519505;-96.9155;4319.55;0.0;19.35484;16 / 16;87.1;24.0;3.651;335174;2014-11-09 13:45:03:146
8.1594;6.6655;2.4134;44.4545;-7.9;-21.5;-32.1;260.86;-40.97;-72.42;62.659;19.519505;-96.9155;4319.55;0.0;19.35484;16 / 16;87.1;24.0;3.651;335674;2014-11-09 13:45:03:646
7.1635;6.2824;2.1452;39.5455;-6.1;-23.8;-30.6;252.25;-40.04;-73.33;62.691;19.519505;-96.9155;4319.55;0.0;19.35484;16 / 16;87.1;24.0;3.651;336174;2014-11-09 13:45:04:146
6.5122;6.2058;3.5626;41.7273;-4.6;-25.8;-29.0;248.5;-39.72;-66.57;61.542;19.519505;-96.915504;4319.4;0.0;19.35484;16 / 16;87.1;24.0;3.651;336674;2014-11-09 13:45:04:646
2.5283;4.1755;8.5425;72.8182;22.8;-5.1;-32.4;276.28;-21.38;-19.43;63.28;19.519505;-96.915504;4319.4;0.0;19.35484;16 / 16;87.1;24.0;3.651;337174;2014-11-09 13:45:05:146
-0.8811;2.6049;6.4739;146.9318;17.3;11.8;-34.7;325.44;-18.34;2.31;62.963;19.519505;-96.915504;4319.4;0.0;19.35484;16 / 16;87.1;24.0;3.651;337674;2014-11-09 13:45:05:646
0.4597;0.4214;9.1937;131.5909;18.3;17.5;-33.5;314.74;-2.62;-2.86;65.386;19.519505;-96.915504;4319.4;0.0;19.35484;16 / 16;87.1;24.0;3.651;338175;2014-11-09 13:45:06:147
0.6895;0.7278;10.4962;141.4773;17.7;18.3;-31.9;309.45;-1.24;-8.69;61.935;19.519505;-96.915504;4319.4;0.0;19.35484;16 / 16;87.1;24.0;3.651;338675;2014-11-09 13:45:06:647
-0.498;0.6512;9.3087;134.6591;18.4;18.5;-30.2;322.2;-4.0;3.06;61.578;19.519505;-96.915504;4319.4;0.0;19.35484;16 / 16;87.1;24.0;3.651;339175;2014-11-09 13:45:07:147
0.498;0.8811;9.9982;128.5227;17.8;18.3;-30.2;313.98;-6.21;-7.21;61.822;19.519505;-96.915504;4319.4;0.0;19.35484;16 / 16;87.1;24.0;3.651;339675;2014-11-09 13:45:07:647
0.7278;0.2682;9.4236;140.4546;15.1;21.5;-30.2;322.87;-1.63;-4.42;61.852;19.519505;-96.915504;4319.4;0.0;19.35484;16 / 16;87.1;24.0;3.651;340175;2014-11-09 13:45:08:147
0.498;0.3065;9.3853;140.4546;15.0;22.0;-30.0;324.16;-1.87;-3.04;62.552;19.519505;-96.91551;4319.28;0.0;19.35484;16 / 16;87.1;24.0;3.651;340676;2014-11-09 13:45:08:648
0.6512;0.0;9.8067;143.5227;14.4;23.0;-29.4;325.36;0.0;-3.8;62.724;19.519505;-96.91551;4319.28;0.0;19.35484;16 / 16;87.1;24.0;3.651;341177;2014-11-09 13:45:09:149
0.4597;-0.1915;9.6917;148.6364;14.4;23.6;-29.0;326.76;1.13;-2.72;61.551;19.519505;-96.91551;4319.28;0.0;19.35484;16 / 16;87.1;24.0;3.651;341677;2014-11-09 13:45:09:649
0.6129;-0.3448;9.6917;149.3182;14.8;23.8;-28.4;323.99;2.03;-3.62;61.031;19.519505;-96.91551;4319.28;0.0;19.35484;16 / 16;87.1;24.0;3.651;342177;2014-11-09 13:45:10:149
0.7661;-0.1532;9.6151;147.2727;14.8;23.6;-28.4;324.65;0.23;-4.07;63.839;19.519505;-96.91551;4319.28;0.0;19.35484;16 / 16;87.1;24.0;3.651;342677;2014-11-09 13:45:10:649
0.6895;-0.1915;9.6534;146.9318;14.6;23.4;-28.4;322.95;1.13;-4.09;62.008;19.519505;-96.91551;4319.28;0.0;19.35484;16 / 16;87.1;24.0;3.651;343179;2014-11-09 13:45:11:151
0.7278;-0.0766;9.6534;147.9546;14.6;23.2;-28.6;322.33;1.36;-4.54;61.426;19.519512;-96.915504;4319.16;0.0;19.35484;16 / 16;87.1;24.0;3.651;343679;2014-11-09 13:45:11:651
0.7278;-0.2298;9.6151;146.9318;14.4;22.8;-29.0;324.13;1.37;-4.33;61.257;19.519512;-96.915504;4319.16;0.0;19.35484;16 / 16;87.1;24.0;3.651;344179;2014-11-09 13:45:12:151
0.6895;-0.0766;9.6917;146.5909;14.2;22.6;-29.0;324.8;0.23;-4.33;62.584;19.519512;-96.915504;4319.16;0.0;19.35484;16 / 16;87.1;24.0;3.651;344679;2014-11-09 13:45:12:651
0.7278;0.0;9.6917;145.5682;14.0;22.2;-29.2;323.75;0.0;-4.29;72.433;19.519512;-96.915504;4319.16;0.0;19.35484;16 / 16;87.1;24.0;3.651;345180;2014-11-09 13:45:13:152
1.2258;1.1109;10.8409;72.2727;14.2;21.6;-29.4;322.98;1.29;-4.26;62.707;19.519516;-96.915504;4319.11;0.0;25.806452;16 / 16;87.1;24.0;3.651;345680;2014-11-09 13:45:13:652
2.0303;1.7238;9.0022;117.6136;12.9;10.7;-35.4;309.09;-10.58;-12.71;61.455;19.519516;-96.915504;4319.11;0.0;25.806452;16 / 16;87.1;24.0;3.651;346180;2014-11-09 13:45:14:152
0.0;1.0726;9.73;317.8572;23.2;17.1;-28.6;311.16;-8.94;-2.39;65.117;19.519516;-96.915504;4319.11;0.0;25.806452;16 / 16;87.1;24.0;3.651;346680;2014-11-09 13:45:14:652
-3.5626;1.3024;9.0022;350.5953;18.4;21.3;-29.0;345.97;-11.62;20.3;74.108;19.519516;-96.915504;4319.11;0.0;25.806452;16 / 16;87.1;24.0;3.651;347180;2014-11-09 13:45:15:152
-2.7964;-0.1149;7.9296;421.4286;27.1;14.4;-26.7;299.07;2.21;7.87;66.161;19.519516;-96.915504;4319.11;0.0;25.806452;16 / 16;87.1;24.0;3.651;347681;2014-11-09 13:45:15:653
-3.4093;0.6129;10.6111;1379.2856;32.8;-1.1;-20.6;271.5;-3.15;17.81;65.511;19.519516;-96.915504;4319.11;0.0;25.806452;16 / 16;87.1;24.0;3.651;348181;2014-11-09 13:45:16:153
-3.9073;1.8771;7.9296;1468.5714;33.8;-14.0;-16.3;249.51;-9.17;23.05;63.527;19.519516;-96.915504;4319.11;0.0;25.806452;16 / 16;87.1;24.0;3.651;348681;2014-11-09 13:45:16:653
-5.0949;0.3831;8.4659;864.2858;29.3;-26.0;-13.5;216.0;-2.22;31.04;69.424;19.519516;-96.915504;4319.11;0.0;25.806452;16 / 16;87.1;24.0;3.651;349182;2014-11-09 13:45:17:154
-3.1795;3.2178;9.3853;879.1668;24.2;-29.0;-12.8;220.93;-17.99;18.72;67.394;19.519508;-96.915504;4318.7;2.19;19.35484;16 / 16;87.1;24.0;3.651;349682;2014-11-09 13:45:17:654
-4.4053;4.7118;10.4196;632.1428;21.2;-29.8;-13.3;215.6;-22.61;22.92;61.874;19.519508;-96.915504;4318.7;2.19;19.35484;16 / 16;87.1;24.0;3.651;350182;2014-11-09 13:45:18:154
-3.1795;5.5162;7.1251;739.2857;16.2;-35.7;-6.1;208.43;-35.26;24.05;61.425;19.519508;-96.915504;4318.7;2.19;19.35484;16 / 16;87.1;24.0;3.651;350682;2014-11-09 13:45:18:654
-4.6735;4.8267;5.4779;426.1905;19.6;-35.0;-4.3;215.6;-36.52;36.51;65.131;19.519508;-96.915504;4318.7;2.19;19.35484;16 / 16;87.1;24.0;3.651;351182;2014-11-09 13:45:19:154
-0.1149;2.988;8.2361;413.6905;11.9;-34.6;-18.5;201.68;-18.05;3.34;70.066;19.5195;-96.915504;4318.1;2.41;19.35484;16 / 16;87.1;24.0;3.651;351682;2014-11-09 13:45:19:654
-0.7278;2.3367;7.3167;480.9524;15.6;-32.1;-23.1;216.36;-17.52;-4.2;72.476;19.5195;-96.915504;4318.1;2.41;19.35484;16 / 16;87.1;24.0;3.651;352182;2014-11-09 13:45:20:154
1.1875;2.3367;10.0365;637.5;14.0;-32.1;-22.8;211.38;-17.8;-0.84;73.867;19.5195;-96.915504;4318.1;2.41;19.35484;16 / 16;87.1;24.0;3.651;352682;2014-11-09 13:45:20:654
1.992;3.4477;10.1514;680.9524;14.8;-31.2;-23.4;219.55;-18.43;-11.1;68.977;19.5195;-96.915504;4318.1;2.41;19.35484;16 / 16;87.1;24.0;3.651;353182;2014-11-09 13:45:21:154
0.498;3.7158;8.8107;710.7143;15.2;-30.4;-24.1;220.26;-21.16;-4.18;72.166;19.519491;-96.9155;4317.57;2.22;19.35484;16 / 16;87.1;24.0;3.651;353682;2014-11-09 13:45:21:654
0.2298;3.371;6.7804;645.2381;16.1;-31.9;-19.5;219.13;-26.42;-1.94;69.56;19.519491;-96.9155;4317.57;2.22;19.35484;16 / 16;87.1;24.0;3.651;354182;2014-11-09 13:45:22:154
0.6895;3.9456;9.5002;663.6905;18.4;-30.5;-21.2;223.95;-22.5;-4.15;70.271;19.519491;-96.9155;4317.57;2.22;19.35484;16 / 16;87.1;24.0;3.651;354682;2014-11-09 13:45:22:654
1.1492;4.9416;8.6191;686.9048;19.5;-29.1;-22.1;235.29;-29.61;-7.59;68.809;19.519491;-96.9155;4317.57;2.22;19.35484;16 / 16;87.1;24.0;3.651;355182;2014-11-09 13:45:23:154
0.7661;4.2138;7.5848;692.2619;19.8;-29.5;-21.1;230.5;-24.65;-9.22;66.237;19.519484;-96.9155;4317.53;1.56;25.806452;16 / 16;87.1;24.0;3.651;355682;2014-11-09 13:45:23:654
